Temps Acquisition (ms),Latitude,Longitude,Précision (m),Vitesse (m/s),Acceleration x (m/s²),Acceleration y (m/s²),Acceleration z (m/s²),Gyro x (rad/s),Gyro y (rad/s),Gyro z (rad/s),Magneto x (mGauss),Magneto y (mGauss),Magneto z (mGauss),Azimut auto (°),Tangage auto (°),Roulis auto (°),Azimut_accMagnet (°),Tangage_accMagnet (°),Roulis_accMagnet (°)
0,-25.78199,28.231445,8.9,0,-2.391,2.767,9.995,-1.2042,-1.1851,-0.3999,31.2,19.8,64.6,186.1,-29,-16.4,-85.9,-16.9,16.3
9,-25.78199,28.231445,8.9,0,0.102,4.098,10.105,-0.874,-1.6538,-0.0716,31.1,19.8,64.8,194.8,-26.5,-14.6,-97.4,-20.7,1
9,-25.78199,28.231445,8.9,0,-0.126,3.895,10.22,-0.8196,-1.8072,-0.1037,31.1,19.8,64.8,199.2,-26.4,-14,-101.4,-22.1,-0.6
15,-25.78199,28.231445,8.9,0,-0.265,3.773,10.314,-0.7706,-1.9031,-0.1921,31.1,19.8,64.8,202.8,-26.1,-13.5,-97.9,-20.9,0.7
21,-25.78199,28.231445,8.9,0,-0.313,3.792,10.529,-0.7281,-1.9788,-0.2507,31.1,19.8,64.8,207.2,-25.8,-13.1,-95.9,-20.1,1.5
21,-25.78199,28.231445,8.9,0,-0.282,3.818,10.678,-0.6854,-2.0203,-0.2805,30.9,19.9,64.9,212.8,-25.5,-12.6,-95.1,-19.8,1.7
27,-25.78199,28.231445,8.9,0,-0.193,3.758,10.661,-0.6491,-2.016,-0.2933,30.9,19.9,64.9,218.6,-25.1,-12.1,-94.9,-19.7,1.5
35,-25.78199,28.231445,8.9,0,-0.069,3.588,10.493,-0.6172,-1.9595,-0.2996,30.9,19.9,64.9,221.5,-24.7,-11.6,-94.6,-19.4,1
36,-25.78199,28.231445,8.9,0,0.057,3.301,10.328,-0.5948,-1.8583,-0.3039,30.9,19.9,64.9,223.4,-24.3,-11.1,-93.8,-18.9,0.4
45,-25.78199,28.231445,8.9,0,0.179,3.021,10.247,-0.5906,-1.7306,-0.3081,31.2,20,65.1,225.3,-23.8,-10.6,-91.5,-17.7,-0.3
46,-25.78199,28.231445,8.9,0,0.289,2.71,10.211,-0.597,-1.5953,-0.3061,31.2,20,65.1,227.2,-23.3,-10.1,-88.8,-16.4,-1
53,-25.78199,28.231445,8.9,0,0.409,2.396,10.204,-0.6055,-1.4492,-0.2996,31.2,20,65.1,229.1,-22.8,-9.5,-85.3,-14.9,-1.6
62,-25.78199,28.231445,8.9,0,0.569,2.152,10.18,-0.6065,-1.2959,-0.2868,31.2,20,65.1,232.7,-22.2,-8.8,-81.4,-13.2,-2.3
62,-25.78199,28.231445,8.9,0,0.675,2.032,10.168,-0.5948,-1.1414,-0.2688,31.2,20.1,65.2,238.3,-21.7,-8.1,-78,-11.9,-3.2
71,-25.78199,28.231445,8.9,0,0.749,2.068,10.139,-0.5714,-0.9912,-0.241,31.2,20.1,65.2,243.6,-21.2,-7.3,-76.2,-11.3,-3.8
71,-25.78199,28.231445,8.9,0,0.751,2.214,10.091,-0.5362,-0.8485,-0.2102,31.2,20.1,65.2,247.5,-20.7,-6.5,-76.6,-11.5,-4.2
79,-25.78199,28.231445,8.9,0,0.711,2.461,10.031,-0.4968,-0.7025,-0.1782,31.4,20.1,65.4,251,-20.2,-5.8,-78.8,-12.3,-4.3
80,-25.78199,28.231445,8.9,0,0.596,2.722,9.986,-0.4617,-0.5503,-0.1537,31.4,20.1,65.4,255.5,-19.6,-5.1,-82.5,-13.8,-4.1
87,-25.78199,28.231445,8.9,0,0.387,2.937,9.955,-0.4308,-0.4042,-0.1409,31.4,20.1,65.4,259.6,-19.1,-4.4,-86.2,-15.2,-3.4
95,-25.78199,28.231445,8.9,0,0.076,3.1,9.931,-0.4095,-0.2658,-0.1398,31.4,20.1,65.4,263.3,-18.6,-3.8,-89,-16.4,-2.2
96,-25.78199,28.231445,8.9,0,-0.167,3.229,9.962,-0.3999,-0.1294,-0.1441,31.6,20.2,65.6,265.5,-18.1,-3.3,-90.6,-17.3,-0.4
104,-25.78199,28.231445,8.9,0,-0.349,3.351,9.981,-0.3989,0.0026,-0.1526,31.6,20.2,65.6,266.5,-17.7,-2.8,-91.5,-18,1
106,-25.78199,28.231445,8.9,0,-0.519,3.39,10.019,-0.4009,0.1134,-0.158,31.6,20.2,65.6,267.3,-17.4,-2.3,-92.3,-18.5,2
113,-25.78199,28.231445,8.9,0,-0.636,3.351,10.074,-0.4063,0.1965,-0.1622,31.6,20.2,65.6,268.1,-17.2,-1.8,-92.1,-18.7,3
121,-25.78199,28.231445,8.9,0,-0.66,3.277,10.144,-0.4084,0.2487,-0.1665,31.8,20.2,65.7,268.7,-17.1,-1.4,-91.4,-18.4,3.6
121,-25.78199,28.231445,8.9,0,-0.663,3.172,10.29,-0.4074,0.2573,-0.1728,31.8,20.2,65.7,269.1,-17.1,-1,-90.4,-17.9,3.7
130,-25.78199,28.231445,8.9,0,-0.665,3.019,10.462,-0.3978,0.22,-0.1804,31.8,20.2,65.7,269.5,-17.1,-0.7,-89,-17.1,3.7
131,-25.78199,28.231445,8.9,0,-0.672,2.887,10.551,-0.3828,0.1422,-0.1847,31.8,20.2,65.7,269.7,-17.2,-0.5,-87.1,-16.1,3.6
138,-25.78199,28.231445,8.9,0,-0.691,2.813,10.632,-0.3594,0.0569,-0.1825,31.8,20.2,65.7,269.9,-17.1,-0.3,-85.6,-15.3,3.6
141,-25.78199,28.231445,8.9,0,-0.651,2.782,10.649,-0.3307,-0.0282,-0.175,32.1,20.2,65.9,269.9,-17,-0.2,-84.8,-14.8,3.7
147,-25.78199,28.231445,8.9,0,-0.584,2.75,10.735,-0.3009,-0.1081,-0.1591,32.1,20.2,65.9,270,-16.8,-0.3,-84.5,-14.6,3.5
155,-25.78199,28.231445,8.9,0,-0.521,2.669,10.728,-0.2688,-0.1805,-0.1324,32.1,20.2,65.9,270.1,-16.6,-0.3,-84.1,-14.3,3.1
156,-25.78199,28.231445,8.9,0,-0.392,2.559,10.644,-0.238,-0.2306,-0.0994,32.1,20.2,65.9,270.2,-16.3,-0.5,-83.4,-14,2.8
164,-25.78199,28.231445,8.9,0,-0.325,2.394,10.474,-0.2093,-0.2434,-0.0568,32.1,20.2,66,270.3,-16.1,-0.5,-82.6,-13.5,2.1
166,-25.78199,28.231445,8.9,0,-0.325,2.305,10.22,-0.1794,-0.2263,-0.0131,32.1,20.2,66,270.5,-15.8,-0.5,-81.4,-12.9,1.8
172,-25.78199,28.231445,8.9,0,-0.258,2.226,9.888,-0.1517,-0.1902,0.0305,32.1,20.2,66,270.7,-15.6,-0.5,-81,-12.7,1.8
181,-25.78199,28.231445,8.9,0,-0.229,2.245,9.696,-0.1218,-0.1507,0.0754,32.1,20.2,66.2,270.9,-15.4,-0.5,-81.1,-12.7,1.5
181,-25.78199,28.231445,8.9,0,-1.084,2.255,9.751,-0.0942,-0.1347,0.1147,32.1,20.2,66.2,271.1,-15.1,-0.5,-81.7,-13,1.4
190,-25.78199,28.231445,8.9,0,-1.118,2.219,9.73,-0.0782,-0.1444,0.1382,32.1,20.2,66.2,271.4,-14.9,-0.7,-81.7,-12.9,6.3
191,-25.78199,28.231445,8.9,0,-1.005,2.214,9.902,-0.0749,-0.1507,0.1723,32.1,20.2,66.2,271.6,-14.8,-0.9,-81.4,-12.8,6.6
198,-25.78199,28.231445,8.9,0,-1.391,2.377,9.835,-0.0857,-0.1507,0.2277,32.1,20.2,66.4,271.9,-14.7,-1.1,-81.1,-12.5,5.8
201,-25.78199,28.231445,8.9,0,-1.434,2.367,9.811,-0.109,-0.1358,0.265,32.1,20.2,66.4,272,-14.6,-1.5,-82.6,-13.5,8
207,-25.78199,28.231445,8.9,0,-1.012,2.363,9.842,-0.1539,-0.0793,0.3043,32.1,20.2,66.4,272.2,-14.6,-1.8,-82.5,-13.4,8.3
216,-25.78199,28.231445,8.9,0,-0.775,2.413,9.967,-0.2124,-0.0005,0.3406,32.1,20.2,66.4,272.4,-14.7,-2.1,-82.6,-13.4,5.9
216,-25.78199,28.231445,8.9,0,-0.478,2.475,10.17,-0.2806,0.0986,0.3534,32.1,20.2,66.4,272.5,-14.8,-2.3,-82.9,-13.6,4.4
224,-25.78199,28.231445,8.9,0,-0.383,2.552,10.359,-0.3552,0.2041,0.3449,32.1,20.2,66.6,272.5,-14.8,-2.6,-83.1,-13.7,2.7
226,-25.78199,28.231445,8.9,0,-0.49,2.58,10.412,-0.4319,0.3297,0.3235,32.1,20.2,66.6,272.6,-14.9,-2.8,-83.5,-13.8,2.1
233,-25.78199,28.231445,8.9,0,-0.675,2.537,10.357,-0.5075,0.4756,0.2937,32.1,20.2,66.6,272.6,-14.9,-3,-83.6,-13.9,2.7
241,-25.78199,28.231445,8.9,0,-0.902,2.434,10.187,-0.5767,0.6302,0.2659,32.2,20.2,66.8,272.6,-14.8,-3.2,-83.4,-13.7,3.7
241,-25.78199,28.231445,8.9,0,-0.976,2.293,9.995,-0.6449,0.7729,0.2489,32.2,20.2,66.8,272.6,-14.7,-3.4,-82.7,-13.4,5.1
250,-25.78199,28.231445,8.9,0,-0.936,2.082,9.789,-0.7088,0.8932,0.2437,32.2,20.2,66.8,272.6,-14.6,-3.6,-81.8,-12.9,5.6
251,-25.78199,28.231445,8.9,0,-0.859,1.975,9.543,-0.7674,0.9796,0.2447,32.2,20.2,66.8,272.7,-14.4,-3.8,-80.3,-12,5.5
258,-25.78199,28.231445,8.9,0,-0.792,1.879,9.244,-0.8196,1.0285,0.2447,32.4,20.2,67.1,272.8,-14.2,-3.9,-79.9,-11.6,5.1
267,-25.78199,28.231445,8.9,0,-0.749,1.819,9.071,-0.8665,1.0552,0.2329,32.4,20.2,67.1,272.9,-13.9,-3.9,-79.5,-11.4,4.9
267,-25.78199,28.231445,8.9,0,-0.715,1.764,9.05,-0.9155,1.0689,0.2074,32.4,20.2,67.1,273.1,-13.7,-4,-79.2,-11.3,4.7
276,-25.78199,28.231445,8.9,0,-0.814,1.675,9.026,-0.9559,1.0433,0.1754,32.4,20.2,67.1,273.3,-13.5,-4,-78.7,-11,4.5
276,-25.78199,28.231445,8.9,0,-0.804,1.587,8.966,-0.9805,0.9677,0.1393,32.4,20.2,67.1,273.6,-13.3,-4.1,-77.9,-10.5,5.2
284,-25.78199,28.231445,8.9,0,-0.845,1.651,9.016,-0.9943,0.8676,0.0987,32.7,20.1,67.4,273.8,-13.1,-4.1,-77.4,-10,5.1
286,-25.78199,28.231445,8.9,0,-0.888,1.663,9.057,-1.0028,0.7547,0.055,32.7,20.1,67.4,274.1,-12.9,-4.2,-78,-10.3,5.4
292,-25.78199,28.231445,8.9,0,-0.9,1.714,9.22,-1.0081,0.6344,0.0049,32.7,20.1,67.4,274.3,-12.8,-4.2,-78,-10.4,5.6
301,-25.78199,28.231445,8.9,0,-0.912,1.733,9.394,-1.0156,0.5066,-0.0514,32.7,20,67.6,274.5,-12.6,-4.3,-78.4,-10.5,5.6
302,-25.78199,28.231445,8.9,0,-0.871,1.721,9.502,-1.0263,0.3894,-0.1154,32.7,20,67.6,274.8,-12.5,-4.4,-78.3,-10.4,5.5
310,-25.78199,28.231445,8.9,0,-0.825,1.678,9.651,-1.0411,0.3041,-0.1825,32.7,20,67.6,274.9,-12.4,-4.5,-77.9,-10.2,5.2
311,-25.78199,28.231445,8.9,0,-0.761,1.618,9.811,-1.0647,0.2465,-0.2486,32.7,20,67.6,275.4,-12.2,-4.6,-77.2,-9.8,4.9
318,-25.78199,28.231445,8.9,0,-0.756,1.58,9.88,-1.0902,0.2115,-0.3157,32.7,20,67.6,275.9,-12.1,-4.7,-76.3,-9.3,4.4
327,-25.78199,28.231445,8.9,0,-0.761,1.525,9.981,-1.1147,0.205,-0.3795,32.6,20,68,276.4,-12,-4.7,-75.9,-9.1,4.4
327,-25.78199,28.231445,8.9,0,-0.794,1.446,10.206,-1.1381,0.2093,-0.4382,32.6,20,68,277,-11.9,-4.8,-75.2,-8.7,4.4
335,-25.78199,28.231445,8.9,0,-0.885,1.391,10.627,-1.1605,0.2178,-0.4892,32.6,20,68,277.5,-11.7,-4.9,-74.2,-8,4.4
336,-25.78199,28.231445,8.9,0,-1.003,1.3,11.018,-1.1787,0.2391,-0.5298,32.6,20,68,278,-11.5,-4.9,-73.3,-7.4,4.8
344,-25.78199,28.231445,8.9,0,-1.146,1.173,11.341,-1.1861,0.2786,-0.5574,32.8,19.9,68.3,278.6,-11.3,-4.9,-72.6,-6.7,5.2
346,-25.78199,28.231445,8.9,0,-1.165,0.969,11.571,-1.1753,0.3392,-0.5702,32.8,19.9,68.3,279.2,-11,-4.9,-71.5,-5.9,5.8
353,-25.78199,28.231445,8.9,0,-1.156,0.746,11.674,-1.1477,0.4235,-0.5681,32.8,19.9,68.3,279.9,-10.7,-4.8,-69.9,-4.8,5.7
362,-25.78199,28.231445,8.9,0,-1.146,0.524,11.662,-1.1019,0.5225,-0.5522,32.8,19.9,68.3,280.6,-10.3,-4.7,-68.2,-3.6,5.7
362,-25.78199,28.231445,8.9,0,-1.13,0.311,11.561,-1.0348,0.6226,-0.5233,32.8,19.8,68.6,281.5,-9.9,-4.7,-66.7,-2.6,5.6
369,-25.78199,28.231445,8.9,0,-1.113,0.093,11.415,-0.9496,0.7132,-0.4872,32.8,19.8,68.6,282.5,-9.5,-4.8,-65.3,-1.5,5.6
371,-25.78199,28.231445,8.9,0,-1.154,-0.086,11.269,-0.8495,0.7846,-0.4445,32.8,19.8,68.6,283.6,-9,-4.9,-63.8,-0.5,5.6
378,-25.78199,28.231445,8.9,0,-1.185,-0.205,11.135,-0.7376,0.825,-0.4019,32.6,19.7,69,284.9,-8.5,-5,-62.9,0.4,5.8
387,-25.78199,28.231445,8.9,0,-1.233,-0.248,10.994,-0.615,0.84,-0.3625,32.6,19.7,69,286.3,-8,-5.1,-62.3,1,6.1
387,-25.78199,28.231445,8.9,0,-1.328,-0.184,10.824,-0.4873,0.84,-0.3263,32.6,19.7,69,287.9,-7.4,-5.2,-62.2,1.3,6.4
395,-25.78199,28.231445,8.9,0,-1.414,-0.086,10.591,-0.353,0.8261,-0.2964,32.6,19.7,69,289.6,-6.9,-5.3,-63,1,7
397,-25.78199,28.231445,8.9,0,-1.498,0.059,10.421,-0.2167,0.8059,-0.2698,32.6,19.7,69,290.9,-6.5,-5.4,-64,0.5,7.6
403,-25.78199,28.231445,8.9,0,-1.546,0.232,10.386,-0.0792,0.7729,-0.2464,32.6,19.6,69.4,292.1,-6.1,-5.5,-65.4,-0.3,8.2
413,-25.78199,28.231445,8.9,0,-1.553,0.426,10.362,0.055,0.7292,-0.2251,32.6,19.6,69.4,293.2,-5.8,-5.6,-66.8,-1.3,8.5
413,-25.78199,28.231445,8.9,0,-1.525,0.588,10.247,0.186,0.6973,-0.2049,32.6,19.6,69.4,294.3,-5.5,-5.7,-68.2,-2.3,8.5
421,-25.78199,28.231445,8.9,0,-1.496,0.746,10.074,0.3117,0.6865,-0.1836,32.5,19.5,69.7,295.4,-5.2,-5.8,-69.5,-3.2,8.5
422,-25.78199,28.231445,8.9,0,-1.446,0.871,9.916,0.4311,0.678,-0.1622,32.5,19.5,69.7,296.8,-5,-6,-70.8,-4.2,8.4
429,-25.78199,28.231445,8.9,0,-1.441,1.06,9.77,0.5429,0.6471,-0.142,32.5,19.5,69.7,298,-4.9,-6.1,-71.8,-5,8.3
432,-25.78199,28.231445,8.9,0,-1.486,1.309,9.631,0.642,0.5918,-0.1218,32.5,19.5,69.7,299.1,-4.8,-6.2,-73.5,-6.1,8.4
438,-25.78199,28.231445,8.9,0,-1.484,1.498,9.569,0.7228,0.5321,-0.1015,32.2,19.5,70.1,300,-4.7,-6.3,-75.8,-7.7,8.8
447,-25.78199,28.231445,8.9,0,-1.498,1.606,9.5,0.7708,0.481,-0.0674,32.2,19.5,70.1,300.8,-4.6,-6.4,-77.5,-8.8,8.8
447,-25.78199,28.231445,8.9,0,-1.446,1.611,9.488,0.8018,0.4394,-0.0355,32.2,19.5,70.1,301.5,-4.6,-6.5,-78.6,-9.5,9
455,-25.78199,28.231445,8.9,0,-1.29,1.584,9.394,0.8251,0.3968,-0.0099,32.2,19.5,70.1,302.1,-4.6,-6.6,-78.6,-9.5,8.7
457,-25.78199,28.231445,8.9,0,-1.13,1.596,9.239,0.8464,0.3616,0.0049,32.1,19.4,70.4,302.6,-4.6,-6.6,-78.5,-9.5,7.8
464,-25.78199,28.231445,8.9,0,-1.024,1.584,9.052,0.8603,0.3286,0.0071,32.1,19.4,70.4,303,-4.6,-6.7,-78.8,-9.7,7
472,-25.78199,28.231445,8.9,0,-0.991,1.556,8.896,0.8614,0.2956,0.0029,32.1,19.4,70.4,303.4,-4.6,-6.8,-78.9,-9.9,6.5
472,-25.78199,28.231445,8.9,0,-1.012,1.479,8.746,0.8464,0.2519,-0.0056,32.1,19.4,70.4,303.7,-4.6,-6.8,-78.9,-9.9,6.4
481,-25.78199,28.231445,8.9,0,-1.053,1.426,8.568,0.8177,0.2007,-0.0206,31.9,19.4,70.7,303.9,-4.6,-6.9,-78.5,-9.5,6.6
482,-25.78199,28.231445,8.9,0,-1.132,1.405,8.324,0.7825,0.1453,-0.0386,31.9,19.4,70.7,304.2,-4.6,-7,-78.3,-9.4,7
489,-25.78199,28.231445,8.9,0,-1.206,1.391,8.066,0.7421,0.0901,-0.0547,31.9,19.4,70.7,304.4,-4.7,-7.1,-78.6,-9.5,7.7
492,-25.78199,28.231445,8.9,0,-1.292,1.393,7.845,0.6963,0.0197,-0.0707,31.9,19.4,70.7,304.6,-4.7,-7.2,-79,-9.7,8.5
498,-25.78199,28.231445,8.9,0,-1.312,1.345,7.726,0.6409,-0.0688,-0.0792,31.8,19.4,71,304.7,-4.8,-7.3,-79.5,-9.9,9.4
506,-25.78199,28.231445,8.9,0,-1.228,1.29,7.905,0.5748,-0.1752,-0.0835,31.8,19.4,71,304.9,-4.9,-7.4,-79.2,-9.7,9.6
507,-25.78199,28.231445,8.9,0,-1.161,1.35,8.121,0.5013,-0.2828,-0.0824,31.8,19.4,71,304.9,-5.1,-7.5,-78.3,-9.2,8.8
515,-25.78199,28.231445,8.9,0,-1.101,1.455,8.19,0.4268,-0.3351,-0.0802,31.8,19.4,71,304.9,-5.3,-7.6,-78.4,-9.3,8.1
517,-25.78199,28.231445,8.9,0,-1.07,1.577,8.195,0.3501,-0.3158,-0.0824,31.8,19.4,71,304.8,-5.6,-7.7,-79.4,-10,7.7
523,-25.78199,28.231445,8.9,0,-0.984,1.702,8.157,0.268,-0.2626,-0.0866,31.7,19.5,71.3,304.5,-6,-7.8,-80.7,-10.8,7.4
532,-25.78199,28.231445,8.9,0,-0.833,1.821,8.039,0.1849,-0.2104,-0.0962,31.7,19.5,71.3,304,-6.4,-7.8,-82.2,-11.7,6.9
532,-25.78199,28.231445,8.9,0,-0.701,1.965,7.934,0.1008,-0.1625,-0.1079,31.7,19.5,71.3,303.3,-6.9,-7.8,-84,-12.7,5.9
541,-25.78199,28.231445,8.9,0,-0.565,2.09,7.817,0.0166,-0.1284,-0.125,31.7,19.5,71.5,302.3,-7.4,-7.8,-86.1,-13.9,5
542,-25.78199,28.231445,8.9,0,-0.476,2.173,7.745,-0.0675,-0.1273,-0.1506,31.7,19.5,71.5,301,-8,-7.7,-88.3,-14.9,4.1
549,-25.78199,28.231445,8.9,0,-0.404,2.252,7.788,-0.1539,-0.1614,-0.1825,31.7,19.5,71.5,299.4,-8.5,-7.6,-89.9,-15.6,3.5
552,-25.78199,28.231445,8.9,0,-0.256,2.308,7.884,-0.2412,-0.2402,-0.2208,31.7,19.5,71.5,297.6,-9.1,-7.4,-91,-16.1,3
558,-25.78199,28.231445,8.9,0,-0.112,2.31,8.058,-0.3242,-0.3468,-0.2655,31.7,19.5,71.5,295.4,-9.6,-7.2,-91.7,-16.3,1.9
566,-25.78199,28.231445,8.9,0,-0.016,2.255,8.295,-0.4052,-0.4628,-0.3167,31.6,19.7,71.8,293.8,-10.1,-6.9,-91.3,-16,0.8
567,-25.78205667,28.23139,5.8,0,0.043,2.185,8.53,-0.4819,-0.564,-0.3721,31.6,19.7,71.8,292.2,-10.5,-6.7,-89.7,-15.2,0.1
575,-25.78205667,28.23139,5.8,0,0.079,2.114,8.712,-0.5522,-0.6259,-0.4275,31.6,19.7,71.8,290.6,-10.9,-6.4,-87.7,-14.4,-0.3
577,-25.78205667,28.23139,5.8,0,0.107,1.996,8.803,-0.6183,-0.6439,-0.4861,31.2,19.9,72,288.4,-11.2,-6.1,-85.8,-13.6,-0.5
584,-25.78205667,28.23139,5.8,0,0.181,1.939,8.865,-0.679,-0.6322,-0.5415,31.2,19.9,72,286.2,-11.5,-5.7,-83.7,-12.8,-0.7
592,-25.78205667,28.23139,5.8,0,0.186,1.915,8.844,-0.7344,-0.6066,-0.5937,31.2,19.9,72,284.1,-11.6,-5.4,-82.6,-12.3,-1.2
592,-25.78205667,28.23139,5.8,0,0.196,1.884,8.757,-0.7844,-0.5768,-0.6469,31.2,19.9,72,282.3,-11.8,-5,-82.3,-12.2,-1.2
601,-25.78205667,28.23139,5.8,0,0.251,1.814,8.585,-0.8282,-0.5481,-0.6981,31.1,20.1,72.2,280.7,-11.9,-4.7,-81.7,-12.1,-1.3
602,-25.78205667,28.23139,5.8,0,0.268,1.735,8.499,-0.8675,-0.5375,-0.7481,31.1,20.1,72.2,279.4,-12,-4.3,-81.1,-11.9,-1.7
609,-25.78205667,28.23139,5.8,0,0.263,1.64,8.53,-0.9069,-0.5555,-0.8004,31.1,20.1,72.2,278.3,-12,-4,-80.1,-11.5,-1.8
612,-25.78205667,28.23139,5.8,0,0.167,1.604,8.657,-0.9442,-0.5992,-0.8525,31.1,20.1,72.2,277.4,-12.1,-3.7,-78.4,-10.9,-1.8
619,-25.78205667,28.23139,5.8,0,0.055,1.572,8.757,-0.9772,-0.6429,-0.9025,30.9,20.2,72.4,276.7,-12.1,-3.4,-77.5,-10.5,-1.1
626,-25.78205667,28.23139,5.8,0,-0.009,1.527,8.817,-1.0007,-0.6717,-0.9452,30.9,20.2,72.4,276.1,-12.1,-3.2,-77,-10.2,-0.4
627,-25.78205667,28.23139,5.8,0,-0.107,1.513,8.827,-1.0167,-0.6919,-0.9761,30.9,20.2,72.4,275.7,-12.1,-2.9,-76.4,-9.8,0.1
635,-25.78205667,28.23139,5.8,0,-0.205,1.472,8.87,-1.0252,-0.7121,-0.9921,30.9,20.2,72.4,275.3,-12.1,-2.7,-76.4,-9.7,0.7
637,-25.78205667,28.23139,5.8,0,-0.28,1.391,8.995,-1.0274,-0.7303,-0.9974,30.5,20.3,72.6,275.1,-12.1,-2.5,-75.5,-9.4,1.3
643,-25.78205667,28.23139,5.8,0,-0.402,1.343,9.095,-1.0274,-0.743,-0.9974,30.5,20.3,72.6,275,-12.1,-2.3,-74.4,-8.8,1.8
652,-25.78205667,28.23139,5.8,0,-0.488,1.309,9.198,-1.0231,-0.7441,-0.9932,30.5,20.3,72.6,274.9,-12,-2.1,-73.9,-8.4,2.5
652,-25.78205667,28.23139,5.8,0,-0.543,1.278,9.358,-1.0146,-0.7399,-0.9857,30.5,20.3,72.6,274.9,-11.9,-1.9,-73.5,-8.1,3
661,-25.78205667,28.23139,5.8,0,-0.526,1.211,9.483,-1.0007,-0.7377,-0.9772,30.2,20.4,72.8,275,-11.9,-1.7,-72.7,-7.8,3.3
662,-25.78205667,28.23139,5.8,0,-0.521,1.158,9.651,-0.9783,-0.7334,-0.9707,30.2,20.4,72.8,275,-11.8,-1.6,-71.7,-7.3,3.2
669,-25.78205667,28.23139,5.8,0,-0.684,1.168,10.034,-0.9496,-0.7303,-0.9665,30.2,20.4,72.8,275.2,-11.6,-1.5,-70.8,-6.8,3.1
672,-25.78205667,28.23139,5.8,0,-0.746,1.101,10.527,-0.9155,-0.7356,-0.9655,30.2,20.4,72.8,275.5,-11.5,-1.4,-70.9,-6.6,3.9
678,-25.78205667,28.23139,5.8,0,-0.696,0.993,10.874,-0.8729,-0.7536,-0.9644,29.8,20.5,73,275.9,-11.2,-1.3,-69.5,-6,4.1
686,-25.78205667,28.23139,5.8,0,-0.538,0.909,11.106,-0.8122,-0.776,-0.9591,29.8,20.5,73,276.4,-10.9,-1.3,-67.9,-5.2,3.7
687,-25.78205667,28.23139,5.8,0,-0.306,0.821,11.322,-0.7387,-0.7931,-0.9559,29.8,20.5,73,277.1,-10.6,-1.2,-66.3,-4.7,2.8
695,-25.78205667,28.23139,5.8,0,-0.076,0.749,11.482,-0.6491,-0.7994,-0.9527,29.8,20.5,73,277.9,-10.2,-1.1,-64.4,-4.1,1.5
697,-25.78205667,28.23139,5.8,0,0.174,0.684,11.724,-0.5501,-0.7931,-0.9485,29.5,20.6,73.2,278.9,-9.8,-1.1,-62.2,-3.7,0.4
704,-25.78205667,28.23139,5.8,0,0.304,0.672,11.932,-0.4393,-0.7697,-0.9463,29.5,20.6,73.2,280,-9.3,-0.9,-60.2,-3.3,-0.9
713,-25.78205667,28.23139,5.8,0,0.44,0.66,12.016,-0.3242,-0.7303,-0.9431,29.5,20.6,73.2,281.3,-8.9,-0.8,-59.3,-3.2,-1.5
713,-25.78205667,28.23139,5.8,0,0.531,0.648,12.095,-0.2017,-0.6695,-0.9366,29.5,20.6,73.2,282.7,-8.4,-0.7,-58.4,-3.1,-2.1
721,-25.78205667,28.23139,5.8,0,0.632,0.603,12.136,-0.0792,-0.6024,-0.9357,29.1,20.7,73.4,284.2,-8,-0.6,-57.1,-3.1,-2.5
722,-25.78205667,28.23139,5.8,0,0.646,0.545,12.16,0.0422,-0.5321,-0.9431,29.1,20.7,73.4,285.7,-7.6,-0.4,-56.1,-2.8,-3
729,-25.78205667,28.23139,5.8,0,0.691,0.497,12.069,0.1625,-0.4597,-0.9602,29.1,20.7,73.4,287.2,-7.2,-0.3,-55.4,-2.6,-3
738,-25.78205667,28.23139,5.8,0,0.694,0.435,11.944,0.2819,-0.3957,-0.9835,29.1,20.7,73.4,288.7,-6.9,-0.2,-54.7,-2.4,-3.3
738,-25.78205667,28.23139,5.8,0,0.785,0.378,11.777,0.399,-0.3457,-1.0145,28.6,20.9,73.6,290.1,-6.5,-0.1,-53.2,-2.1,-3.3
746,-25.78205667,28.23139,5.8,0,0.976,0.361,11.492,0.5119,-0.3116,-1.0506,28.6,20.9,73.6,291,-6.2,0,-52,-1.8,-3.8
747,-25.78205667,28.23139,5.8,0,1.13,0.361,11.219,0.6153,-0.2871,-1.0964,28.6,20.9,73.6,291.9,-5.9,0.1,-50.2,-1.8,-4.9
755,-25.78205667,28.23139,5.8,0,1.266,0.237,10.963,0.7154,-0.2689,-1.1498,28.6,20.9,73.6,292.7,-5.5,0.3,-48.8,-1.8,-5.8
757,-25.78205667,28.23139,5.8,0,1.362,0.203,10.726,0.806,-0.2595,-1.2083,28.4,21.1,73.8,293.5,-5.2,0.5,-45.4,-1.2,-6.6
763,-25.78205667,28.23139,5.8,0,1.395,0.268,10.192,0.8891,-0.2595,-1.2723,28.4,21.1,73.8,294.2,-4.9,0.7,-43.8,-1.1,-7.2
771,-25.78205667,28.23139,5.8,0,1.345,0.411,9.56,0.9721,-0.2562,-1.3479,28.4,21.1,73.8,294.8,-4.7,0.9,-43.5,-1.5,-7.8
772,-25.78205667,28.23139,5.8,0,1.244,0.543,9.682,1.034,-0.2732,-1.4278,28.4,21.1,73.8,295.6,-4.5,1.1,-45.1,-2.4,-8
781,-25.78205667,28.23139,5.8,0,1.142,0.627,9.66,1.0318,-0.3468,-1.5012,28.1,21.3,73.9,296.4,-4.3,1.3,-47.3,-3.2,-7.3
782,-25.78205667,28.23139,5.8,0,1.113,0.701,9.488,1.0158,-0.4,-1.5705,28.1,21.3,73.9,297.1,-4.1,1.6,-49.7,-3.7,-6.7
789,-25.78205667,28.23139,5.8,0,1.039,0.835,9.361,0.9914,-0.417,-1.6376,28.1,21.3,73.9,297.7,-4,1.8,-51,-4.2,-6.7
798,-25.78205667,28.23139,5.8,0,0.936,0.964,9.397,0.9508,-0.4128,-1.6994,28.1,21.3,73.9,298.1,-3.9,2,-53.8,-5.1,-6.3
798,-25.78205667,28.23139,5.8,0,0.802,1.055,9.375,0.8848,-0.3915,-1.7495,27.9,21.5,74,298.5,-3.8,2.3,-56.4,-5.8,-5.7
806,-25.78205667,28.23139,5.8,0,0.689,1.101,9.227,0.8081,-0.3414,-1.7825,27.9,21.5,74,298.7,-3.7,2.5,-59.1,-6.4,-4.9
807,-25.78205667,28.23139,5.8,0,0.586,1.156,9.026,0.7239,-0.2595,-1.8048,27.9,21.5,74,298.9,-3.7,2.7,-61.1,-6.8,-4.3
814,-25.78205667,28.23139,5.8,0,0.471,1.247,8.796,0.6387,-0.1731,-1.8176,27.9,21.5,74,299,-3.7,2.9,-63.1,-7.3,-3.7
817,-25.78205667,28.23139,5.8,0,0.349,1.24,8.604,0.5482,-0.0975,-1.8198,27.5,21.7,74,299,-3.7,3.1,-65.2,-8.1,-3.1
823,-25.78205667,28.23139,5.8,0,0.248,1.185,8.379,0.4566,-0.0463,-1.8124,27.5,21.7,74,299,-3.8,3.3,-66.3,-8.2,-2.3
832,-25.78205667,28.23139,5.8,0,0.167,1.118,8.228,0.3703,-0.023,-1.8028,27.5,21.7,74,298.9,-3.8,3.5,-66.6,-8,-1.7
832,-25.78205667,28.23139,5.8,0,0.071,1.022,8.145,0.2893,-0.0304,-1.7996,27.5,21.7,74,298.8,-3.9,3.7,-66.3,-7.7,-1.2
841,-25.78205667,28.23139,5.8,0,0.035,0.919,8.183,0.2094,-0.0719,-1.8028,27,21.8,74,298.6,-3.9,3.8,-64.8,-7.2,-0.5
842,-25.78205667,28.23139,5.8,0,-0.074,0.823,8.336,0.1349,-0.1455,-1.8102,27,21.8,74,298.4,-4,3.9,-63.3,-6.4,-0.2
849,-25.78205667,28.23139,5.8,0,-0.177,0.79,8.54,0.0688,-0.237,-1.8176,27,21.8,74,298.3,-4,4,-62.4,-5.6,0.5
858,-25.78205667,28.23139,5.8,0,-0.311,0.83,8.667,0.0124,-0.3212,-1.8187,27,21.8,74,298.2,-4.1,3.9,-62.3,-5.3,1.2
858,-25.78205667,28.23139,5.8,0,-0.418,0.897,8.853,-0.0377,-0.3894,-1.8113,26.6,22.1,74,298.1,-4.2,3.9,-62.8,-5.5,2.1
866,-25.78205667,28.23139,5.8,0,-0.56,0.955,9.15,-0.0835,-0.4394,-1.792,26.6,22.1,74,298.1,-4.2,3.7,-64.1,-5.8,2.7
867,-25.78205667,28.23139,5.8,0,-0.766,1.039,9.483,-0.1261,-0.4735,-1.7655,26.6,22.1,74,298.1,-4.3,3.6,-65.1,-5.9,3.5
874,-25.78205667,28.23139,5.8,0,-0.914,1.106,9.742,-0.1624,-0.4735,-1.7335,26.6,22.1,74,298.2,-4.5,3.3,-66.5,-6.2,4.6
877,-25.78205667,28.23139,5.8,0,-1.034,1.094,9.89,-0.1943,-0.4405,-1.6856,25.9,22.3,73.9,298.3,-4.6,3,-66.6,-6.4,5.4
883,-25.78205667,28.23139,5.8,0,-1.094,1.055,10.014,-0.2188,-0.3692,-1.6313,25.9,22.3,73.9,298.5,-4.8,2.7,-66.7,-6.3,6
892,-25.78205667,28.23139,5.8,0,-1.209,0.964,10.196,-0.2412,-0.2786,-1.5759,25.9,22.3,73.9,298.8,-4.9,2.4,-66.3,-6,6.2
893,-25.78205667,28.23139,5.8,0,-1.278,0.861,10.196,-0.2646,-0.172,-1.5216,25.9,22.3,73.9,299.1,-5.1,2,-65.6,-5.4,6.8
901,-25.78205667,28.23139,5.8,0,-1.4,0.79,10.062,-0.287,-0.0443,-1.4587,25.4,22.5,73.8,299.5,-5.2,1.5,-64.3,-4.8,7.1
903,-25.78205667,28.23139,5.8,0,-1.525,0.785,9.995,-0.304,0.0858,-1.3863,25.4,22.5,73.8,300,-5.3,1,-64.2,-4.4,7.9
909,-25.78205667,28.23139,5.8,0,-1.733,0.873,9.962,-0.3179,0.2104,-1.3084,25.4,22.5,73.8,300.6,-5.4,0.5,-64.7,-4.4,8.7
917,-25.78205667,28.23139,5.8,0,-1.912,0.974,9.919,-0.3318,0.3233,-1.2297,25.4,22.5,73.8,301.3,-5.6,-0.2,-66.3,-4.9,9.9
918,-25.78205667,28.23139,5.8,0,-2.023,1.12,9.77,-0.335,0.4256,-1.1444,25.1,22.8,73.7,302.1,-5.7,-0.9,-67.2,-5.5,10.9
926,-25.78205667,28.23139,5.8,0,-1.994,1.244,9.653,-0.3318,0.5077,-1.0517,25.1,22.8,73.7,303.1,-5.9,-1.5,-69,-6.4,11.7
928,-25.78205667,28.23139,5.8,0,-1.941,1.292,9.533,-0.3253,0.5683,-0.9548,25.1,22.8,73.7,304.2,-6,-2.2,-70.2,-7.2,11.7
935,-25.78205667,28.23139,5.8,0,-1.884,1.309,9.421,-0.3168,0.6066,-0.8621,25.1,22.8,73.7,305.4,-6.2,-2.8,-70.7,-7.6,11.5
943,-25.78205667,28.23139,5.8,0,-1.656,1.185,9.203,-0.3094,0.6333,-0.7769,24.5,23,73.6,306.8,-6.3,-3.4,-70.4,-7.8,11.3
944,-25.78205667,28.23139,5.8,0,-1.316,1.13,8.88,-0.3094,0.6461,-0.697,24.5,23,73.6,308.3,-6.4,-4,-69,-7.2,10.2
952,-25.78205667,28.23139,5.8,0,-1.06,1.065,8.7,-0.3147,0.6461,-0.6193,24.5,23,73.6,310,-6.4,-4.5,-67.9,-7.2,8.4
953,-25.78205667,28.23139,5.8,0,-0.895,1.058,8.597,-0.3233,0.6194,-0.5361,24.5,23,73.6,310.6,-6.4,-4.9,-66.6,-6.9,6.9
960,-25.78205667,28.23139,5.8,0,-0.727,1.206,8.592,-0.3307,0.5598,-0.4595,24.2,23.2,73.4,311.1,-6.4,-5.2,-65.3,-7,5.9
963,-25.78205667,28.23139,5.8,0,-0.514,1.211,8.573,-0.3381,0.4682,-0.3977,24.2,23.2,73.4,311.7,-6.5,-5.5,-66.5,-8,4.8
969,-25.78205667,28.23139,5.8,0,-0.213,1.168,8.432,-0.3392,0.3616,-0.3541,24.2,23.2,73.4,312.3,-6.4,-5.7,-65.5,-8,3.4
977,-25.78205667,28.23139,5.8,0,0.062,1.326,8.41,-0.3327,0.253,-0.3402,24.2,23.2,73.4,312.8,-6.4,-5.8,-63.3,-7.9,1.4
978,-25.78205667,28.23139,5.8,0,0.102,1.252,8.616,-0.3222,0.1379,-0.3413,23.7,23.4,73.2,313.3,-6.5,-5.8,-63.1,-9,-0.4
986,-25.78205667,28.23139,5.8,0,0.134,1.158,8.825,-0.3062,0.0176,-0.3604,23.7,23.4,73.2,313.7,-6.5,-5.8,-61,-8.3,-0.7
988,-25.78205667,28.23139,5.8,0,0.131,1.244,9.174,-0.2795,-0.0932,-0.3913,23.7,23.4,73.2,314,-6.5,-5.8,-58.8,-7.5,-0.9
994,-25.78205667,28.23139,5.8,0,0.378,1.132,9.124,-0.2443,-0.1827,-0.4264,23.7,23.4,73.2,314.3,-6.5,-5.8,-59.5,-7.7,-0.8
1003,-25.78205667,28.23139,5.8,0,0.658,1.106,8.959,-0.1997,-0.237,-0.4636,23.3,23.6,72.9,314.5,-6.6,-5.7,-54.7,-7.1,-2.4
1003,-25.78205667,28.23139,5.8,0,0.466,1.051,9.239,-0.1485,-0.2689,-0.4977,23.3,23.6,72.9,314.6,-6.6,-5.5,-51.3,-7,-4.2
1012,-25.78205667,28.23139,5.8,0,0.27,1.012,9.526,-0.1059,-0.3062,-0.5255,23.3,23.6,72.9,314.7,-6.7,-5.3,-52.4,-6.5,-2.9
1012,-25.78205667,28.23139,5.8,0,0.081,1.046,9.758,-0.076,-0.334,-0.5565,23.3,23.6,72.9,314.7,-6.7,-5.2,-53.5,-6.1,-1.6
1020,-25.78205667,28.23139,5.8,0,-0.081,1.125,9.888,-0.0473,-0.3414,-0.5852,23,23.8,72.7,314.6,-6.7,-5,-54.5,-6.1,-0.5
1023,-25.78205667,28.23139,5.8,0,-0.181,1.235,9.926,-0.0175,-0.3169,-0.6,23,23.8,72.7,314.6,-6.7,-4.9,-56.7,-6.5,0.5
1029,-25.78205667,28.23139,5.8,0,-0.268,1.323,9.873,0.0113,-0.2604,-0.6011,23,23.8,72.7,314.5,-6.7,-4.7,-58.8,-7.1,1
1037,-25.78205667,28.23139,5.8,0,-0.304,1.417,9.794,0.04,-0.1848,-0.5904,23,23.8,72.7,314.4,-6.8,-4.6,-60.6,-7.6,1.6
1038,-25.78205667,28.23139,5.8,0,-0.287,1.52,9.713,0.0635,-0.0986,-0.5745,22.6,24.1,72.5,314.3,-6.8,-4.4,-61.4,-8.2,1.8
1046,-25.78205667,28.23139,5.8,0,-0.193,1.616,9.588,0.088,-0.0144,-0.5607,22.6,24.1,72.5,314.2,-7,-4.2,-62.9,-8.9,1.7
1048,-25.78205667,28.23139,5.8,0,-0.071,1.625,9.406,0.1125,0.0623,-0.5511,22.6,24.1,72.5,314,-7.1,-4,-64,-9.6,1.2
1054,-25.78205667,28.23139,5.8,0,0.076,1.568,9.179,0.1391,0.1251,-0.55,22.6,24.1,72.5,313.8,-7.3,-3.8,-63.8,-9.8,0.4
1063,-25.78205667,28.23139,5.8,0,0.225,1.47,8.947,0.1636,0.1709,-0.5596,22,24.2,72.3,313.6,-7.5,-3.4,-61.4,-9.7,-0.5
1063,-25.78205667,28.23139,5.8,0,0.337,1.362,8.719,0.186,0.205,-0.5787,22,24.2,72.3,313.3,-7.6,-3.1,-59,-9.3,-1.4
1072,-25.78205667,28.23139,5.8,0,0.466,1.292,8.432,0.1988,0.2263,-0.6054,22,24.2,72.3,313,-7.8,-2.6,-56.6,-8.9,-2.2
1073,-25.78205667,28.23139,5.8,0,0.723,1.374,8.087,0.2083,0.2413,-0.6352,22,24.2,72.3,312.6,-7.8,-2.1,-54.5,-8.7,-3.2
1080,-25.78205667,28.23139,5.8,0,0.909,1.443,7.852,0.2137,0.2456,-0.6683,21.5,24.4,72.1,312.2,-7.9,-1.6,-52,-9.6,-5.1
1083,-25.78205667,28.23139,5.8,0,0.967,1.161,7.627,0.2201,0.2274,-0.7087,21.5,24.4,72.1,311.7,-8,-1,-50.8,-10.3,-6.6
1088,-25.78205667,28.23139,5.8,0,0.567,1.17,7.797,0.2276,0.1794,-0.7663,21.5,24.4,72.1,311.2,-8,-0.4,-43.4,-8.6,-7.2
1097,-25.78205667,28.23139,5.8,0,0.035,1.323,8.221,0.2276,0.1038,-0.8302,21.5,24.4,72.1,310.7,-8,0.1,-50.9,-8.5,-4.2
1098,-25.78205667,28.23139,5.8,0,-0.356,1.288,8.53,0.2201,0.0239,-0.892,20.9,24.4,71.8,310.3,-8.1,0.4,-58.4,-9.1,-0.2
1105,-25.78205667,28.23139,5.8,0,-0.665,1.278,8.815,0.2222,-0.0324,-0.9442,20.9,24.4,71.8,309.6,-8.1,0.5,-60.4,-8.6,2.4
1108,-25.78205667,28.23139,5.8,0,-0.763,1.321,8.913,0.2329,-0.0571,-0.9804,20.9,24.4,71.8,308.5,-8.2,0.6,-61.7,-8.2,4.3
1114,-25.78205667,28.23139,5.8,0,-0.77,1.28,8.88,0.2478,-0.0517,-0.9974,20.9,24.4,71.8,307.7,-8.2,0.6,-62.6,-8.4,4.9
1123,-25.78205667,28.23139,5.8,0,-0.952,1.089,8.927,0.2585,-0.0261,-1.0037,20.3,24.4,71.6,307.2,-8.2,0.5,-61.6,-8.2,5
1123,-25.78205667,28.23139,5.8,0,-1.216,0.964,9.109,0.2659,0.0037,-1.0037,20.3,24.4,71.6,307,-8.2,0.4,-60.2,-6.9,6.1
1131,-25.78205667,28.23139,5.8,0,-1.403,0.969,9.27,0.2595,0.0399,-0.9985,20.3,24.4,71.6,307.1,-8.1,0.1,-59.9,-6,7.6
1133,-25.78205667,28.23139,5.8,0,-1.616,0.955,9.351,0.2457,0.0986,-0.9846,20.3,24.4,71.6,307.6,-8,-0.2,-60.6,-5.9,8.6
1140,-25.78205667,28.23139,5.8,0,-1.79,0.957,9.332,0.2318,0.1805,-0.958,19.9,24.4,71.3,308.3,-7.9,-0.6,-61,-5.7,9.8
1149,-25.78205667,28.23139,5.8,0,-1.97,1.012,9.306,0.2179,0.2689,-0.9229,19.9,24.4,71.3,309.3,-7.9,-1,-61.9,-5.8,10.9
1149,-25.78205667,28.23139,5.8,0,-2.13,1.074,9.222,0.2009,0.3435,-0.8803,19.9,24.4,71.3,310.2,-7.8,-1.5,-63.2,-6.1,12
1158,-25.78205667,28.23139,5.8,0,-2.262,1.048,9.076,0.1796,0.4011,-0.8312,19.9,24.4,71.3,310.7,-7.8,-2.1,-64.5,-6.5,13
1158,-25.78205667,28.23139,5.8,0,-2.389,1.187,9.035,0.154,0.4352,-0.778,19.2,24.3,71,311.3,-7.8,-2.6,-64.6,-6.4,14
1166,-25.78205667,28.23139,5.8,0,-2.439,1.28,9.026,0.1232,0.4447,-0.7172,19.2,24.3,71,311.9,-7.9,-3.2,-66.4,-7.2,14.8
1168,-25.78205667,28.23139,5.8,0,-2.355,1.302,9.016,0.088,0.4341,-0.6534,19.2,24.3,71,312.6,-8,-3.7,-67.4,-7.8,15.1
1174,-25.78205667,28.23139,5.8,0,-2.207,1.264,9.006,0.0539,0.4,-0.5862,19.2,24.3,71,313.4,-8,-4.2,-67.4,-8,14.6
1183,-25.78205667,28.23139,5.8,0,-2.037,1.24,9.016,0.0187,0.3403,-0.5213,18.8,24.2,70.7,314.2,-8.1,-4.7,-66.4,-7.8,13.8
1183,-25.78205667,28.23139,5.8,0,-1.865,1.213,9.033,-0.0164,0.2584,-0.4616,18.8,24.2,70.7,315,-8.1,-5.1,-65.6,-7.6,12.7
1191,-25.78205667,28.23139,5.8,0,-1.719,1.185,9.143,-0.0484,0.1666,-0.4115,18.8,24.2,70.7,315.8,-8,-5.4,-64.7,-7.5,11.7
1193,-25.78205667,28.23139,5.8,0,-1.611,1.177,9.26,-0.0803,0.0751,-0.3743,18.8,24.2,70.7,316.6,-8,-5.7,-63.6,-7.3,10.6
1200,-25.78205667,28.23139,5.8,0,-1.553,1.233,9.394,-0.1038,-0.0069,-0.3402,18.3,24.1,70.4,317.4,-7.9,-6,-62.5,-7.1,9.9
1209,-25.78205667,28.23139,5.8,0,-1.493,1.316,9.5,-0.1198,-0.0762,-0.3124,18.3,24.1,70.4,318.2,-7.8,-6.3,-62.5,-7.4,9.4
1209,-25.78205667,28.23139,5.8,0,-1.414,1.419,9.619,-0.1294,-0.1337,-0.289,18.3,24.1,70.4,319,-7.8,-6.7,-62.9,-7.8,8.9
1217,-25.78205667,28.23139,5.8,0,-1.355,1.527,9.701,-0.1326,-0.1785,-0.2698,18.3,24.1,70.4,319.9,-7.7,-7,-63.4,-8.3,8.4
1218,-25.78205667,28.23139,5.8,0,-1.268,1.64,9.725,-0.1294,-0.2135,-0.2538,17.7,24,70.1,322.1,-7.7,-7.3,-63.8,-8.9,8
1226,-25.78205667,28.23139,5.8,0,-1.146,1.714,9.749,-0.1198,-0.2349,-0.2401,17.7,24,70.1,324.8,-7.8,-7.6,-64.7,-9.5,7.4
1228,-25.78205667,28.23139,5.8,0,-0.993,1.774,9.732,-0.1081,-0.2476,-0.2305,17.7,24,70.1,327.5,-7.8,-8,-65,-9.9,6.7
1234,-25.78205667,28.23139,5.8,0,-0.816,1.836,9.653,-0.0962,-0.2541,-0.2262,17.7,24,70.1,330.3,-7.8,-8.3,-65.1,-10.3,5.8
1243,-25.78205667,28.23139,5.8,0,-0.639,1.886,9.574,-0.0835,-0.2573,-0.2251,17.2,23.8,69.7,333.1,-7.9,-8.6,-65,-10.7,4.8
1243,-25.78205667,28.23139,5.8,0,-0.445,1.86,9.447,-0.074,-0.2604,-0.2325,17.2,23.8,69.7,335.6,-8,-8.8,-65,-11.1,3.8
1251,-25.78205667,28.23139,5.8,0,-0.263,1.771,9.346,-0.0675,-0.2647,-0.2421,17.2,23.8,69.7,337.3,-8.1,-8.9,-63.8,-11.1,2.7
1253,-25.78205667,28.23139,5.8,0,-0.153,1.678,9.267,-0.0654,-0.27,-0.256,17.2,23.8,69.7,338.8,-8.1,-8.8,-61.2,-10.7,1.6
1260,-25.78205667,28.23139,5.8,0,-0.067,1.599,9.205,-0.0697,-0.2775,-0.2773,16.6,23.7,69.4,340,-8.2,-8.7,-58.2,-10.3,0.9
1269,-25.78205667,28.23139,5.8,0,-0.038,1.52,9.169,-0.0792,-0.2806,-0.3018,16.6,23.7,69.4,341.3,-8.3,-8.5,-56.1,-9.9,0.4
1269,-25.78205667,28.23139,5.8,0,-0.04,1.443,9.162,-0.0931,-0.2722,-0.3274,16.6,23.7,69.4,342.3,-8.3,-8.4,-54.5,-9.4,0.2
1278,-25.78205667,28.23139,5.8,0,-0.11,1.338,9.16,-0.109,-0.2562,-0.353,16.6,23.7,69.4,342.7,-8.4,-8.2,-53.2,-9,0.3
1278,-25.78205667,28.23139,5.8,0,-0.189,1.187,9.244,-0.1251,-0.2296,-0.3752,16,23.6,69,342.5,-8.4,-8,-51.5,-8.3,0.7
1286,-25.78205667,28.23139,5.8,0,-0.328,1.029,9.435,-0.1431,-0.2007,-0.3934,16,23.6,69,342,-8.5,-7.7,-50,-7.3,1.2
1289,-25.78205667,28.23139,5.8,0,-0.447,0.876,9.627,-0.1613,-0.1678,-0.4104,16,23.6,69,341.2,-8.5,-7.5,-49,-6.2,2
1295,-25.78205667,28.23139,5.8,0,-0.581,0.802,9.825,-0.1741,-0.1251,-0.4264,16,23.6,69,340.2,-8.5,-7.2,-48,-5.2,2.7
1303,-25.78205667,28.23139,5.8,0,-0.723,0.768,9.955,-0.1826,-0.074,-0.4382,15.5,23.5,68.6,339.3,-8.4,-6.9,-47.4,-4.7,3.4
1304,-25.78205667,28.23139,5.8,0,-0.869,0.706,10.053,-0.188,-0.023,-0.4445,15.5,23.5,68.6,338.5,-8.3,-6.6,-48.2,-4.4,4.2
1311,-25.78205667,28.23139,5.8,0,-1.036,0.641,10.134,-0.1889,0.0165,-0.4425,15.5,23.5,68.6,337.6,-8.2,-6.3,-48.7,-4,4.9
1313,-25.78205667,28.23139,5.8,0,-1.216,0.579,10.23,-0.1858,0.0432,-0.436,15.5,23.5,68.6,336.6,-8.1,-6,-49.3,-3.6,5.8
1320,-25.78205667,28.23139,5.8,0,-1.4,0.541,10.321,-0.1794,0.0569,-0.4264,14.8,23.3,68.2,335.7,-7.9,-5.8,-49.2,-3.2,6.8
1329,-25.78205667,28.23139,5.8,0,-1.596,0.495,10.395,-0.173,0.0549,-0.4136,14.8,23.3,68.2,334.9,-7.7,-5.6,-50.1,-3,7.7
1329,-25.78205667,28.23139,5.8,0,-1.805,0.459,10.491,-0.1655,0.0441,-0.3965,14.8,23.3,68.2,333.9,-7.5,-5.4,-51,-2.7,8.7
1337,-25.78205667,28.23139,5.8,0,-1.999,0.445,10.56,-0.1559,0.023,-0.3752,14.8,23.3,68.2,333.2,-7.3,-5.3,-51.9,-2.5,9.8
1339,-25.78205667,28.23139,5.8,0,-2.185,0.483,10.601,-0.1474,0.0026,-0.3487,14.3,23.2,67.8,332.8,-7.2,-5.3,-52.4,-2.4,10.7
1345,-25.78205667,28.23139,5.8,0,-2.331,0.543,10.654,-0.1389,-0.0197,-0.3189,14.3,23.2,67.8,332.7,-7,-5.4,-53.7,-2.6,11.6
1349,-25.78205667,28.23139,5.8,0,-2.415,0.6,10.711,-0.1272,-0.0443,-0.2848,14.3,23.2,67.8,333,-6.8,-5.5,-54.9,-2.9,12.3
1355,-25.78205667,28.23139,5.8,0,-2.415,0.634,10.745,-0.1166,-0.0719,-0.2518,14.3,23.2,67.8,333.7,-6.7,-5.7,-55.7,-3.1,12.7
1362,-25.78205667,28.23139,5.8,0,-2.401,0.696,10.745,-0.1027,-0.0964,-0.2219,13.7,23,67.5,334.7,-6.5,-5.8,-55.5,-3.3,12.7
1363,-25.78205667,28.23139,5.8,0,-2.37,0.766,10.749,-0.091,-0.1242,-0.1984,13.7,23,67.5,335.6,-6.4,-6,-55.9,-3.6,12.6
1372,-25.78205667,28.23139,5.8,0,-2.327,0.799,10.728,-0.0792,-0.1507,-0.1793,13.7,23,67.5,336.6,-6.2,-6.2,-56.3,-4,12.4
1373,-25.78205667,28.23139,5.8,0,-2.264,0.847,10.711,-0.0664,-0.1785,-0.1622,13.7,23,67.5,337.8,-6,-6.3,-56.4,-4.2,12.2
1380,-25.78205667,28.23139,5.8,0,-2.217,0.895,10.682,-0.0547,-0.2061,-0.1506,13.3,22.8,67.2,339,-5.8,-6.5,-56.4,-4.4,11.9
1388,-25.78205667,28.23139,5.8,0,-2.161,0.955,10.658,-0.0441,-0.2339,-0.1452,13.3,22.8,67.2,340.3,-5.6,-6.7,-56.6,-4.7,11.7
1389,-25.78205667,28.23139,5.8,0,-2.13,1.005,10.611,-0.0314,-0.2658,-0.1452,13.3,22.8,67.2,342.2,-5.5,-7,-56.9,-5,11.5
1397,-25.78205667,28.23139,5.8,0,-2.094,1.024,10.536,-0.0186,-0.2934,-0.1474,13.3,22.8,67.2,344.2,-5.3,-7.2,-57.3,-5.3,11.4
1398,-25.78205667,28.23139,5.8,0,-2.042,1.039,10.493,-0.0047,-0.319,-0.1517,12.6,22.6,66.9,346.2,-5.1,-7.5,-57,-5.4,11.2
1406,-25.78205667,28.23139,5.8,0,-1.984,1.029,10.503,0.007,-0.3436,-0.1559,12.6,22.6,66.9,348.4,-4.9,-7.8,-56.9,-5.6,11
1415,-25.78205667,28.23139,5.8,0,-1.924,0.986,10.5,0.0166,-0.3564,-0.1611,12.6,22.6,66.9,350.7,-4.8,-8.1,-56.5,-5.5,10.7
1415,-25.78205667,28.23139,5.8,0,-1.867,0.96,10.488,0.023,-0.3446,-0.1634,12.6,22.6,66.9,353.1,-4.7,-8.4,-55.7,-5.3,10.4
1423,-25.78205667,28.23139,5.8,0,-1.807,0.933,10.405,0.0263,-0.3084,-0.1622,12.3,22.4,66.7,355.2,-4.6,-8.7,-55.1,-5.1,10.1
1424,-25.78205667,28.23139,5.8,0,-1.766,0.912,10.292,0.0283,-0.2519,-0.1526,12.3,22.4,66.7,356,-4.4,-9,-54.7,-5,9.9
1431,-25.78205667,28.23139,5.8,0,-1.738,0.873,10.144,0.0283,-0.1794,-0.142,12.3,22.4,66.7,356.7,-4.3,-9.3,-54.4,-5,9.7
1434,-25.78205667,28.23139,5.8,0,-1.709,0.825,9.952,0.0272,-0.1006,-0.1282,12.3,22.4,66.7,357.5,-4.3,-9.5,-54.1,-4.8,9.7
1440,-25.78205667,28.23139,5.8,0,-1.661,0.825,9.732,0.0272,-0.0197,-0.1122,11.8,22.2,66.5,358.3,-4.2,-9.7,-53.5,-4.7,9.7
1448,-25.78205667,28.23139,5.8,0,-1.594,0.871,9.466,0.0294,0.0623,-0.093,11.8,22.2,66.5,359,-4.2,-10,-53.6,-4.8,9.7
1449,-25.78205667,28.23139,5.8,0,-1.532,1.017,9.169,0.0326,0.1358,-0.0685,11.8,22.2,66.5,359.7,-4.2,-10.1,-54.2,-5.2,9.6
1457,-25.78205667,28.23139,5.8,0,-1.436,1.161,8.858,0.04,0.1955,-0.0386,11.8,22.2,66.5,0.3,-4.3,-10.3,-56.2,-6.2,9.5
1459,-25.78205667,28.23139,5.8,0,-1.3,1.285,8.516,0.055,0.2328,-0.0067,11.3,21.9,66.3,0.9,-4.4,-10.5,-58.1,-7.4,9.2
1466,-25.78205667,28.23139,5.8,0,-1.103,1.388,8.166,0.0698,0.2402,0.0285,11.3,21.9,66.3,1.6,-4.5,-10.6,-59.9,-8.5,8.7
1474,-25.78205667,28.23139,5.8,0,-0.873,1.465,7.802,0.0869,0.2211,0.0583,11.3,21.9,66.3,2.2,-4.7,-10.6,-61.4,-9.6,7.7
1475,-25.78205667,28.23139,5.8,0,-0.641,1.522,7.426,0.1008,0.1752,0.0828,11.3,21.9,66.3,2.7,-4.9,-10.6,-62.5,-10.6,6.4
1483,-25.78205667,28.23139,5.8,0,-0.366,1.565,7.089,0.1071,0.1166,0.1041,10.9,21.8,66.2,3.2,-5.2,-10.5,-63.3,-11.5,4.9
1484,-25.78205667,28.23139,5.8,0,-0.11,1.64,6.787,0.1071,0.0463,0.12,10.9,21.8,66.2,3.6,-5.4,-10.4,-63.4,-12.4,3
1492,-25.78205667,28.23139,5.8,0,0.126,1.704,6.536,0.0965,-0.0293,0.1308,10.9,21.8,66.2,3.9,-5.7,-10.1,-64.7,-13.6,0.9
1494,-25.78205667,28.23139,5.8,0,0.368,1.726,6.347,0.0784,-0.106,0.1371,10.9,21.8,66.2,4.1,-6.1,-9.8,-65.8,-14.6,-1.1
1500,-25.78205667,28.23139,5.8,0,0.617,1.699,6.21,0.0539,-0.1794,0.1393,10.5,21.6,66,4.2,-6.4,-9.4,-62.9,-15.2,-3.3
1509,-25.78205667,28.23139,5.8,0,0.873,1.644,6.129,0.0209,-0.2413,0.1339,10.5,21.6,66,4.1,-6.7,-9,-49.8,-15.2,-5.7
1509,-25.78205667,28.23139,5.8,0,1.11,1.58,6.062,-0.0154,-0.2934,0.1232,10.5,21.6,66,3.8,-7,-8.5,-15.9,-14.9,-8.1
1517,-25.78205667,28.23139,5.8,0,1.295,1.486,6.052,-0.0579,-0.3329,0.1052,10.5,21.6,66,3.3,-7.3,-7.9,20.4,-14.4,-10.4
1519,-25.78205667,28.23139,5.8,0,1.47,1.352,6.121,-0.1048,-0.3649,0.0828,10.1,21.4,65.9,2.6,-7.6,-7.2,36.9,-13.5,-12.1
1526,-25.78205667,28.23139,5.8,0,1.599,1.24,6.215,-0.1559,-0.3872,0.0507,10.1,21.4,65.9,1.6,-7.9,-6.6,38.8,-12.1,-13.5
1534,-25.78205667,28.23139,5.8,0,1.683,1.072,6.349,-0.205,-0.4,0.0114,10.1,21.4,65.9,0.4,-8.1,-5.8,38.4,-10.9,-14.4
1534,-25.78205667,28.23139,5.8,0,1.671,0.859,6.586,-0.2582,-0.4074,-0.0344,10.1,21.4,65.9,358.9,-8.3,-5.1,34.4,-9.3,-14.8
1543,-25.78205667,28.23139,5.8,0,1.541,0.653,6.9,-0.3083,-0.4117,-0.0866,10,21.2,65.7,357.3,-8.4,-4.3,26.9,-7.2,-14.2
1544,-25.78205667,28.23139,5.8,0,1.326,0.45,7.22,-0.3563,-0.4107,-0.1409,10,21.2,65.7,355.3,-8.4,-3.5,16.9,-5.3,-12.6
1551,-25.78205667,28.23139,5.8,0,1.017,0.26,7.551,-0.3956,-0.4011,-0.1963,10,21.2,65.7,349.9,-8.4,-2.7,6.7,-3.5,-10.4
1554,-25.78205667,28.23139,5.8,0,0.646,0.074,7.9,-0.4319,-0.3829,-0.2464,10,21.2,65.7,343.7,-8.3,-2.1,-3.5,-2,-7.7
1561,-25.78205667,28.23139,5.8,0,0.251,-0.141,8.348,-0.4553,-0.3607,-0.2922,9.7,21.1,65.6,338.5,-8.2,-1.5,-11.9,-0.5,-4.7
1568,-25.78205667,28.23139,5.8,0,-0.136,-0.323,8.832,-0.4745,-0.3468,-0.3231,9.7,21.1,65.6,334.7,-8,-0.9,-19.2,1,-1.7
1569,-25.78205667,28.23139,5.8,0,-0.519,-0.464,9.303,-0.4808,-0.3414,-0.3402,9.7,21.1,65.6,329.7,-7.7,-0.5,-24.5,2.1,0.9
1577,-25.78205667,28.23139,5.8,0,-0.871,-0.521,9.744,-0.4755,-0.3479,-0.3359,9.7,21.1,65.6,325.6,-7.4,-0.2,-28.8,2.9,3.2
1579,-25.78205667,28.23139,5.8,0,-1.192,-0.464,10.225,-0.4532,-0.3681,-0.3124,9.5,20.9,65.6,322.4,-7.1,0,-32.1,3,5.1
1585,-25.78205667,28.23139,5.8,0,-1.438,-0.335,10.678,-0.4159,-0.4074,-0.2688,9.5,20.9,65.6,320.2,-6.8,0.1,-35.6,2.6,6.6
1595,-25.78205667,28.23139,5.8,0,-1.625,-0.165,11.164,-0.3637,-0.4682,-0.2102,9.5,20.9,65.6,319.6,-6.5,0.2,-38.4,1.8,7.7
1595,-25.78205667,28.23139,5.8,0,-1.711,-0.014,11.626,-0.2944,-0.5481,-0.1398,9.5,20.9,65.6,319.4,-6.2,0.2,-40.8,0.8,8.3
1602,-25.78205667,28.23139,5.8,0,-1.673,0.138,12.028,-0.2093,-0.6482,-0.0707,9.1,20.8,65.6,319.4,-5.9,0.2,-41.7,0.1,8.4
1604,-25.78205667,28.23139,5.8,0,-1.508,0.251,12.368,-0.1133,-0.7633,-0.011,9.1,20.8,65.6,319.6,-5.6,0.1,-42,-0.7,7.9
1611,-25.78205667,28.23139,5.8,0,-1.259,0.306,12.612,-0.0154,-0.8804,0.0338,9.1,20.8,65.6,319.8,-5.3,0.1,-41.1,-1.2,7
1614,-25.78205667,28.23139,5.8,0,-0.964,0.306,12.782,0.0784,-0.9849,0.0593,9.1,20.8,65.6,320.6,-5,0.1,-39,-1.4,5.7
1620,-25.78205667,28.23139,5.8,0,-0.687,0.28,12.878,0.1616,-1.0552,0.072,9.1,20.6,65.5,321.7,-4.7,0.2,-36.3,-1.4,4.3
1628,-25.78205667,28.23139,5.8,0,-0.462,0.26,12.933,0.2265,-1.0807,0.0711,9.1,20.6,65.5,322.7,-4.3,0.2,-33.2,-1.2,3.1
1629,-25.78205667,28.23139,5.8,0,-0.306,0.265,12.94,0.2734,-1.0583,0.0615,9.1,20.6,65.5,323.8,-4,0.2,-30.6,-1.2,2
1637,-25.78205667,28.23139,5.8,0,-0.201,0.27,12.923,0.3021,-0.9955,0.0444,9.1,20.6,65.5,324.8,-3.6,0.2,-28.9,-1.2,1.4
1639,-25.78205667,28.23139,5.8,0,-0.136,0.263,12.887,0.3138,-0.9103,0.022,8.8,20.3,65.5,325.9,-3.2,0.2,-27.4,-1.2,0.9
1645,-25.78205667,28.23139,5.8,0,-0.088,0.222,12.828,0.3117,-0.8198,-0.0067,8.8,20.3,65.5,326.9,-2.9,0.2,-26.6,-1.2,0.6
1654,-25.78205667,28.23139,5.8,0,-0.095,0.198,12.792,0.2947,-0.7345,-0.0397,8.8,20.3,65.5,327.9,-2.5,0.1,-25.8,-1,0.4
1654,-25.78205667,28.23139,5.8,0,-0.119,0.201,12.741,0.268,-0.6482,-0.0738,8.8,20.3,65.5,329,-2.2,-0.1,-25.7,-0.9,0.4
1662,-25.78205667,28.23139,5.8,0,-0.153,0.222,12.744,0.2318,-0.562,-0.1068,8.8,20.1,65.5,330.1,-1.8,-0.3,-26.3,-0.9,0.5
1664,-25.78205667,28.23139,5.8,0,-0.196,0.241,12.794,0.1913,-0.4799,-0.1324,8.8,20.1,65.5,331.4,-1.5,-0.5,-26.9,-1,0.7
1671,-25.78205667,28.23139,5.8,0,-0.237,0.256,12.856,0.1508,-0.4042,-0.1506,8.8,20.1,65.5,332.8,-1.3,-0.8,-27.5,-1.1,0.9
1680,-25.78205667,28.23139,5.8,0,-0.251,0.229,12.931,0.1136,-0.3372,-0.1611,8.8,20.1,65.5,334.2,-1,-1,-28.1,-1.1,1.1
1680,-25.78205667,28.23139,5.8,0,-0.241,0.158,12.962,0.0837,-0.2806,-0.1622,8.8,19.9,65.5,335.5,-0.9,-1.3,-28.2,-1,1.1
1688,-25.78205667,28.23139,5.8,0,-0.239,0.062,12.947,0.0667,-0.2349,-0.1559,8.8,19.9,65.5,336.5,-0.7,-1.7,-27.6,-0.7,1.1
1689,-25.78205667,28.23139,5.8,0,-0.227,-0.028,12.871,0.0539,-0.1913,-0.1441,8.8,19.9,65.5,337.6,-0.5,-1.9,-27,-0.3,1.1
1697,-25.78205667,28.23139,5.8,0,-0.193,-0.095,12.746,0.0507,-0.1444,-0.1293,8.8,19.9,65.5,338.6,-0.4,-2.2,-26.3,0.1,1
1699,-25.78205667,28.23139,5.8,0,-0.119,-0.124,12.516,0.0539,-0.091,-0.109,8.8,19.7,65.6,339.6,-0.3,-2.4,-25.9,0.4,0.9
1706,-25.78205667,28.23139,5.8,0,-0.047,-0.124,12.272,0.0604,-0.0336,-0.0866,8.8,19.7,65.6,340.9,-0.2,-2.6,-24.8,0.6,0.5
1714,-25.78205667,28.23139,5.8,0,0.007,-0.076,12.03,0.0698,0.0239,-0.0664,8.8,19.7,65.6,342.1,-0.2,-2.6,-23.9,0.6,0.2
1715,-25.78205667,28.23139,5.8,0,0.047,0.014,11.803,0.0837,0.0762,-0.0472,8.8,19.7,65.6,343.1,-0.2,-2.7,-23.5,0.4,0
1722,-25.78205667,28.23139,5.8,0,0.038,0.112,11.537,0.1028,0.1251,-0.0249,8.7,19.6,65.7,343.9,-0.3,-2.6,-23.4,-0.1,-0.2
1724,-25.78205667,28.23139,5.8,0,0.031,0.215,11.271,0.1253,0.1709,-0.0014,8.7,19.6,65.7,344.4,-0.4,-2.5,-24.2,-0.6,-0.2
1732,-25.78205667,28.23139,5.8,0,0.064,0.363,10.943,0.1519,0.2093,0.0274,8.7,19.6,65.7,344.6,-0.5,-2.4,-25,-1.1,-0.2
1740,-25.78205667,28.23139,5.8,0,0.148,0.486,10.613,0.1807,0.2413,0.0572,8.7,19.6,65.7,344.5,-0.6,-2.2,-25.6,-1.9,-0.3
1740,-25.78205667,28.23139,5.8,0,0.258,0.572,10.251,0.2083,0.2647,0.0859,8.8,19.6,65.8,344.1,-0.7,-1.9,-25.4,-2.6,-0.8
1748,-25.78205667,28.23139,5.8,0,0.383,0.658,9.868,0.235,0.2882,0.1104,8.8,19.6,65.8,343.5,-0.8,-1.6,-24.1,-3.2,-1.4
1749,-25.78205667,28.23139,5.8,0,0.517,0.739,9.454,0.2542,0.3147,0.1297,8.8,19.6,65.8,342.6,-0.9,-1.3,-22.3,-3.8,-2.2
1757,-25.78205667,28.23139,5.8,0,0.639,0.828,9.023,0.2648,0.3425,0.1425,8.8,19.6,65.8,341.4,-1,-1,-19.7,-4.5,-3.1
1759,-25.78205667,28.23139,5.8,0,0.756,0.916,8.599,0.268,0.3755,0.153,9,19.5,65.9,340.1,-1.1,-0.6,-17.8,-5.2,-4.1
1766,-25.78205667,28.23139,5.8,0,0.912,1.012,8.152,0.2648,0.4085,0.1595,9,19.5,65.9,339,-1.3,-0.3,-14.4,-6.1,-5
1773,-25.78205667,28.23139,5.8,0,1.015,1.094,7.714,0.2542,0.4415,0.169,9,19.5,65.9,337.9,-1.4,0,-8.1,-7,-6.4
1774,-25.78205667,28.23139,5.8,0,1.115,1.154,7.309,0.2361,0.466,0.1743,9,19.5,65.9,336.7,-1.5,0.2,-1.7,-8,-7.5
1782,-25.78205667,28.23139,5.8,0,1.194,1.192,6.95,0.2083,0.4788,0.1775,9,19.4,66,335.5,-1.7,0.5,6.7,-8.9,-8.7
1784,-25.78205667,28.23139,5.8,0,1.264,1.189,6.648,0.1742,0.4799,0.1754,9,19.4,66,333.9,-1.9,0.8,15.9,-9.6,-9.7
1791,-25.78205667,28.23139,5.8,0,1.335,1.18,6.363,0.1327,0.4724,0.169,9,19.4,66,332,-2.1,1,24.5,-10,-10.8
1800,-25.78205667,28.23139,5.8,0,1.381,1.154,6.114,0.0848,0.4597,0.1584,9,19.4,66,330.2,-2.3,1.3,33.2,-10.3,-11.8
1800,-25.78205667,28.23139,5.8,0,1.424,1.094,5.849,0.0315,0.4458,0.1445,9,19.4,66.2,328.3,-2.5,1.6,39.8,-10.4,-12.7
1809,-25.78205667,28.23139,5.8,0,1.515,0.998,5.674,-0.0271,0.4267,0.1328,9,19.4,66.2,326.5,-2.7,1.9,44,-10.3,-13.7
1809,-25.78205667,28.23139,5.8,0,1.589,0.928,5.568,-0.091,0.3968,0.1147,9,19.4,66.2,324.7,-3,2.3,46.4,-9.6,-14.9
1816,-25.78205667,28.23139,5.8,0,1.666,0.811,5.554,-0.1581,0.351,0.0913,9,19.4,66.2,322.7,-3.2,2.7,47.7,-9.1,-15.9
1819,-25.78205667,28.23139,5.8,0,1.675,0.687,5.585,-0.2306,0.2945,0.0615,9.1,19.4,66.3,320.6,-3.4,3.1,45.9,-8,-16.7
1825,-25.78205667,28.23139,5.8,0,1.628,0.615,5.748,-0.302,0.2254,0.0263,9.1,19.4,66.3,319.5,-3.5,3.6,42,-6.7,-16.7
1834,-25.78205667,28.23139,5.8,0,1.532,0.512,6.047,-0.3754,0.1401,-0.0142,9.1,19.4,66.3,318.7,-3.7,4.1,36.8,-5.9,-15.8
1834,-25.78205667,28.23139,5.8,0,1.345,0.373,6.442,-0.4456,0.0432,-0.0568,9.1,19.4,66.3,317.9,-3.9,4.5,28.3,-4.7,-14.2
1843,-25.78205667,28.23139,5.8,0,1.079,0.28,6.909,-0.5086,-0.0506,-0.0994,9.1,19.3,66.5,317.1,-4,5,16.8,-3.2,-11.8
1845,-25.78205667,28.23139,5.8,0,0.77,0.172,7.386,-0.5639,-0.1358,-0.1378,9.1,19.3,66.5,316.3,-4.2,5.4,4.4,-2.3,-8.9
1851,-25.78205667,28.23139,5.8,0,0.452,0.057,7.9,-0.6065,-0.2007,-0.1697,9.1,19.3,66.5,315.6,-4.3,5.7,-6.9,-1.3,-6
1859,-25.78205667,28.23139,5.8,0,0.129,-0.004,8.422,-0.6385,-0.2467,-0.1932,9.1,19.3,66.5,314.8,-4.5,6,-15.7,-0.4,-3.3
1860,-25.78205667,28.23139,5.8,0,-0.198,-0.062,8.954,-0.6577,-0.2765,-0.208,9.2,19.3,66.6,314.2,-4.6,6.1,-22.9,0,-0.9
1868,-25.78205667,28.23139,5.8,0,-0.517,-0.067,9.452,-0.6641,-0.2977,-0.2102,9.2,19.3,66.6,313.6,-4.6,6.1,-28.4,0.4,1.3
1870,-25.78205667,28.23139,5.8,0,-0.825,-0.011,9.931,-0.6545,-0.318,-0.1995,9.2,19.3,66.6,313.1,-4.7,6.1,-33,0.4,3.1
1877,-25.78205667,28.23139,5.8,0,-1.096,0.071,10.333,-0.6278,-0.3436,-0.1814,9.2,19.3,66.6,312.8,-4.7,5.9,-37.2,0.1,4.7
1885,-25.78205667,28.23139,5.8,0,-1.309,0.146,10.673,-0.5874,-0.3883,-0.1526,9.2,19.2,66.8,312.6,-4.6,5.6,-40.8,-0.4,6.1
1885,-25.78205667,28.23139,5.8,0,-1.472,0.208,11.042,-0.5362,-0.4586,-0.1196,9.2,19.2,66.8,312.5,-4.6,5.3,-43.3,-0.8,7
1894,-25.78205667,28.23139,5.8,0,-1.556,0.272,11.382,-0.483,-0.5545,-0.0813,9.2,19.2,66.8,312.6,-4.5,4.9,-44.9,-1.1,7.6
1895,-25.78205667,28.23139,5.8,0,-1.587,0.304,11.693,-0.4319,-0.6663,-0.0419,9.2,19.2,66.8,312.8,-4.4,4.4,-45.8,-1.4,7.8
1902,-25.78205667,28.23139,5.8,0,-1.58,0.342,11.944,-0.3828,-0.7825,0.0007,9.1,19.1,67,313.1,-4.3,3.9,-46,-1.5,7.7
1905,-25.78205667,28.23139,5.8,0,-1.522,0.366,12.162,-0.3403,-0.8837,0.0498,9.1,19.1,67,313.5,-4.2,3.4,-45.9,-1.6,7.5
1911,-25.78205667,28.23139,5.8,0,-1.426,0.404,12.361,-0.3094,-0.954,0.1009,9.1,19.1,67,314.1,-4,2.9,-45.4,-1.7,7.1
1920,-25.78205667,28.23139,5.8,0,-1.266,0.462,12.55,-0.2901,-0.9881,0.1552,9.1,19.1,67,314.8,-3.8,2.3,-44.6,-1.9,6.6
1920,-25.78205667,28.23139,5.8,0,-1.094,0.524,12.694,-0.2806,-0.9859,0.2085,9.2,19.1,67.3,315.6,-3.6,1.8,-43.7,-2.1,5.8
1928,-25.78205667,28.23139,5.8,0,-0.861,0.596,12.77,-0.2773,-0.9529,0.2574,9.2,19.1,67.3,316.4,-3.4,1.3,-42.4,-2.4,4.9
1930,-25.78205667,28.23139,5.8,0,-0.598,0.687,12.78,-0.2773,-0.8997,0.3011,9.2,19.1,67.3,317.3,-3.2,0.8,-40.6,-2.7,3.9
1937,-25.78205667,28.23139,5.8,0,-0.313,0.742,12.727,-0.2816,-0.8335,0.3352,9.2,19.1,67.3,318.2,-3.1,0.4,-38.6,-3.1,2.7
1945,-25.78205667,28.23139,5.8,0,-0.009,0.802,12.65,-0.287,-0.7622,0.3608,9.3,19,67.5,319.1,-2.9,0.1,-36.1,-3.3,1.4
1945,-25.78205667,28.23139,5.8,0,0.294,0.821,12.538,-0.2934,-0.6876,0.3736,9.3,19,67.5,320,-2.8,-0.2,-32.6,-3.6,0
1953,-25.78205667,28.23139,5.8,0,0.586,0.854,12.404,-0.3009,-0.6089,0.3747,9.3,19,67.5,322.2,-2.6,-0.4,-28.1,-3.7,-1.3
1955,-25.78205667,28.23139,5.8,0,0.845,0.857,12.253,-0.3083,-0.5225,0.364,9.3,19,67.5,324.3,-2.5,-0.6,-23.2,-3.9,-2.7
1962,-25.78205667,28.23139,5.8,0,1.082,0.837,12.095,-0.3105,-0.4352,0.346,9.5,19,67.7,326.2,-2.4,-0.7,-18.8,-4,-3.9
1965,-25.78205667,28.23139,5.8,0,1.28,0.78,11.961,-0.3083,-0.3468,0.3193,9.5,19,67.7,327.6,-2.4,-0.8,-13.6,-3.9,-5.1
1970,-25.78205667,28.23139,5.8,0,1.417,0.687,11.784,-0.3009,-0.2604,0.2852,9.5,19,67.7,328.8,-2.3,-0.8,-8.8,-3.7,-6.1
1980,-25.78205667,28.23139,5.8,0,1.534,0.624,11.616,-0.287,-0.1774,0.2457,9.5,19,67.7,329.7,-2.3,-0.9,-5.2,-3.3,-6.9
1980,-25.78205667,28.23139,5.8,0,1.618,0.519,11.415,-0.2657,-0.0986,0.2021,9.5,18.9,68,330.3,-2.2,-0.9,-2,-3,-7.5
1988,-25.78205667,28.23139,5.8,0,1.668,0.385,11.133,-0.2358,-0.0187,0.1541,9.5,18.9,68,330.7,-2.2,-0.8,0.5,-2.6,-8.1
1990,-25.78205667,28.23139,5.8,0,1.69,0.282,10.874,-0.2017,0.0602,0.1041,9.5,18.9,68,331,-2.2,-0.8,2.3,-2,-8.5
1997,-25.78205667,28.23139,5.8,0,1.659,0.172,10.601,-0.1676,0.1358,0.0518,9.5,18.9,68,331,-2.1,-0.7,3.5,-1.5,-8.8
2005,-25.78205667,28.23139,5.8,0,1.594,0.067,10.319,-0.1337,0.2104,-0.0003,9.8,18.9,68.2,330.9,-2.1,-0.5,2.7,-0.9,-8.9
2005,-25.78205667,28.23139,5.8,0,1.496,-0.009,10.034,-0.0974,0.2892,-0.0419,9.8,18.9,68.2,330.5,-2.1,-0.3,2.1,-0.4,-8.8
2013,-25.78205667,28.23139,5.8,0,1.393,-0.031,9.734,-0.0558,0.3766,-0.0707,9.8,18.9,68.2,329.9,-2.1,-0.1,1,0.1,-8.5
2015,-25.78205667,28.23139,5.8,0,1.292,0.045,9.416,-0.0132,0.4693,-0.0813,9.8,18.9,68.2,329.1,-2.1,0.2,-0.2,0.2,-8.1
2023,-25.78205667,28.23139,5.8,0,1.201,0.191,9.071,0.0326,0.5629,-0.0749,9.8,18.8,68.5,328.1,-2.1,0.5,-1.4,-0.3,-7.8
2025,-25.78205667,28.23139,5.8,0,1.108,0.385,8.688,0.0858,0.6493,-0.0536,9.8,18.8,68.5,326.9,-2.2,0.8,-2.5,-1.2,-7.5
2031,-25.78205667,28.23139,5.8,0,1.06,0.6,8.24,0.1381,0.7217,-0.0184,9.8,18.8,68.5,325.5,-2.2,1.2,-4,-2.5,-7.3
2040,-25.78205667,28.23139,5.8,0,1.065,0.79,7.699,0.1924,0.7781,0.0263,9.8,18.8,68.5,323.9,-2.3,1.6,-4.2,-4.1,-7.3
2040,-25.78205667,28.23139,5.8,0,1.118,0.933,7.141,0.2403,0.8112,0.0732,10,18.8,68.8,322.2,-2.4,2,-2.2,-5.8,-7.9
2048,-25.78205667,28.23139,5.8,0,1.204,1.029,6.629,0.2776,0.8155,0.1094,10,18.8,68.8,320.3,-2.6,2.5,4.7,-7.4,-8.9
2050,-25.78205667,28.23139,5.8,0,1.316,1.055,6.184,0.3,0.7974,0.1232,10,18.8,68.8,319.4,-2.7,3.1,17.1,-8.7,-10.3
2059,-25.78205667,28.23139,5.8,0,1.429,0.998,5.786,0.3117,0.7686,0.1211,10,18.8,68.8,318.7,-2.9,3.6,32.6,-9.5,-12
2065,-25.78205667,28.23139,5.8,0,1.525,0.852,5.465,0.3128,0.7345,0.1041,10.1,18.8,69,317.9,-3.1,4.2,43.5,-9.5,-13.9
2065,-25.78205667,28.23139,5.8,0,1.637,0.658,5.233,0.3043,0.6962,0.0763,10.1,18.8,69,317,-3.2,4.9,46.6,-8.5,-15.6
2074,-25.78205667,28.23139,5.8,0,1.721,0.478,5.116,0.2797,0.6504,0.037,10.1,18.8,69,316.1,-3.4,5.5,46.3,-6.8,-17.4
2075,-25.78205667,28.23139,5.8,0,1.783,0.313,5.097,0.2467,0.6013,-0.011,10.1,18.8,69,315.2,-3.4,6.2,44.4,-5.1,-18.6
2082,-25.78205667,28.23139,5.8,0,1.824,0.198,5.224,0.2062,0.5459,-0.0642,10.4,18.7,69.2,314.3,-3.5,6.9,41.7,-3.3,-19.3
2085,-25.78205667,28.23139,5.8,0,1.778,0.136,5.453,0.1636,0.4767,-0.1196,10.4,18.7,69.2,313.4,-3.5,7.6,38.8,-2,-19.2
2091,-25.78205667,28.23139,5.8,0,1.604,0.095,5.758,0.1189,0.3861,-0.1793,10.4,18.7,69.2,312.5,-3.4,8.2,34.2,-1.4,-18.1
2099,-25.78205667,28.23139,5.8,0,1.288,0.047,6.186,0.072,0.2732,-0.239,10.4,18.7,69.2,311.8,-3.4,8.7,26,-0.9,-15.6
2100,-25.78205667,28.23139,5.8,0,0.837,0.011,6.742,0.0272,0.1433,-0.2964,10.6,18.7,69.4,311.1,-3.3,9.2,11.9,-0.4,-11.8
2108,-25.78205667,28.23139,5.8,0,0.313,0.05,7.347,-0.0154,0.0091,-0.3465,10.6,18.7,69.4,310.6,-3.2,9.4,-5.9,-0.1,-7.1
2110,-25.78205667,28.23139,5.8,0,-0.21,0.146,7.888,-0.0505,-0.1038,-0.3817,10.6,18.7,69.4,310.1,-3,9.5,-22.6,-0.4,-2.4
2116,-25.78205667,28.23139,5.8,0,-0.699,0.325,8.35,-0.074,-0.1848,-0.3923,10.6,18.7,69.4,309.4,-2.9,9.4,-35.5,-1.1,1.5
2125,-25.78205667,28.23139,5.8,0,-1.074,0.565,8.659,-0.0888,-0.2317,-0.3732,10.8,18.6,69.7,308.9,-2.9,9,-46,-2.2,4.8
2125,-25.78205667,28.23139,5.8,0,-1.312,0.89,8.894,-0.0962,-0.2562,-0.3316,10.8,18.6,69.7,308.7,-2.9,8.6,-53.6,-3.7,7.1
2134,-25.78205667,28.23139,5.8,0,-1.4,1.242,9.071,-0.0974,-0.2669,-0.2731,10.8,18.6,69.7,308.8,-3,8,-60.2,-5.7,8.4
2135,-25.78205667,28.23139,5.8,0,-1.381,1.584,9.251,-0.0942,-0.286,-0.208,10.8,18.6,69.7,309.2,-3.2,7.3,-66,-7.7,8.8
2142,-25.78205667,28.23139,5.8,0,-1.316,1.862,9.452,-0.0868,-0.3233,-0.1474,10.8,18.5,69.9,309.7,-3.5,6.6,-71.5,-9.6,8.5
2151,-25.78205667,28.23139,5.8,0,-1.204,2.049,9.646,-0.0749,-0.3851,-0.0983,10.8,18.5,69.9,310.1,-3.9,5.9,-75.5,-11,7.9
2151,-25.78205667,28.23139,5.8,0,-0.986,2.149,9.763,-0.0547,-0.4586,-0.0622,10.8,18.5,69.9,310.3,-4.4,5.2,-78,-11.9,7.1
2160,-25.78205667,28.23139,5.8,0,-0.694,2.205,9.816,-0.0324,-0.5353,-0.0419,10.8,18.5,69.9,310.4,-4.9,4.6,-78.9,-12.4,5.8
2160,-25.78205667,28.23139,5.8,0,-0.404,2.152,9.943,-0.0132,-0.6003,-0.0366,10.8,18.5,70.1,310.5,-5.5,4.1,-79.6,-12.6,4
2168,-25.78205667,28.23139,5.8,0,-0.162,2.054,10.125,-0.0015,-0.6493,-0.0557,10.8,18.5,70.1,310.5,-6,3.6,-76.3,-12.2,2.3
2170,-25.78205667,28.23139,5.8,0,0.028,1.936,10.335,-0.0026,-0.6717,-0.0972,10.8,18.5,70.1,310.4,-6.5,3.2,-70.6,-11.5,0.9
2176,-25.78205667,28.23139,5.8,0,0.193,1.819,10.556,-0.0132,-0.6663,-0.1601,10.8,18.5,70.1,310.3,-6.9,2.9,-63.7,-10.6,-0.2
2185,-25.78205667,28.23139,5.8,0,0.344,1.697,10.8,-0.026,-0.6322,-0.2336,11,18.4,70.3,310.1,-7.2,2.7,-57.6,-9.8,-1
2185,-25.78205667,28.23139,5.8,0,0.442,1.549,11.125,-0.0388,-0.5822,-0.3135,11,18.4,70.3,309.5,-7.4,2.5,-50.5,-8.9,-1.8
2194,-25.78205667,28.23139,5.8,0,0.536,1.381,11.456,-0.0516,-0.5214,-0.3945,11,18.4,70.3,308.7,-7.5,2.3,-44.1,-7.9,-2.3
2195,-25.78205667,28.23139,5.8,0,0.612,1.213,11.784,-0.0622,-0.4491,-0.4744,11,18.4,70.3,308.1,-7.4,2.1,-38.2,-6.9,-2.7
2202,-25.78205667,28.23139,5.8,0,0.677,1.041,12.03,-0.0686,-0.3681,-0.5532,11.3,18.4,70.4,307.8,-7.3,1.9,-34.8,-5.9,-3
2211,-25.78205667,28.23139,5.8,0,0.687,0.871,12.184,-0.0697,-0.2743,-0.6245,11.3,18.4,70.4,307.7,-7.2,1.7,-31.1,-4.9,-3.2
2211,-25.78205667,28.23139,5.8,0,0.66,0.67,12.272,-0.0675,-0.1742,-0.6896,11.3,18.4,70.4,308,-7,1.5,-29,-4.1,-3.2
2219,-25.78205667,28.23139,5.8,0,0.629,0.538,12.342,-0.0612,-0.0719,-0.747,11.3,18.4,70.4,308.6,-6.7,1.3,-27.5,-3.1,-3.1
2220,-25.78205667,28.23139,5.8,0,0.567,0.416,12.349,-0.0536,0.0293,-0.795,11.3,18.3,70.6,309.6,-6.5,1.1,-26.8,-2.5,-2.9
2228,-25.78205667,28.23139,5.8,0,0.469,0.325,12.373,-0.0408,0.1284,-0.8291,11.3,18.3,70.6,310.3,-6.4,0.8,-26.8,-1.9,-2.6
2230,-25.78205667,28.23139,5.8,0,0.359,0.258,12.409,-0.0271,0.2157,-0.8536,11.3,18.3,70.6,310.9,-6.2,0.5,-27.6,-1.5,-2.2
2236,-25.78205667,28.23139,5.8,0,0.282,0.222,12.418,-0.0078,0.286,-0.8653,11.3,18.3,70.6,311.5,-6.1,0.2,-28.7,-1.2,-1.7
2245,-25.78205667,28.23139,5.8,0,0.215,0.256,12.382,0.0155,0.335,-0.8717,11.3,18.2,70.8,312.1,-5.9,-0.1,-29.9,-1,-1.3
2245,-25.78205667,28.23139,5.8,0,0.179,0.308,12.368,0.0443,0.3585,-0.8727,11.3,18.2,70.8,312.8,-5.8,-0.3,-31.1,-1.2,-1
2253,-25.78205667,28.23139,5.8,0,0.134,0.371,12.349,0.0795,0.351,-0.8695,11.3,18.2,70.8,313.4,-5.8,-0.5,-32.1,-1.4,-0.8
2256,-25.78205667,28.23139,5.8,0,0.098,0.38,12.399,0.1147,0.3147,-0.8621,11.3,18.2,70.8,314,-5.7,-0.6,-33.3,-1.7,-0.6
2262,-25.78205667,28.23139,5.8,0,0.028,0.342,12.476,0.1508,0.253,-0.8515,11.6,18.1,70.9,314.5,-5.7,-0.7,-34.8,-1.8,-0.5
2272,-25.78205667,28.23139,5.8,0,-0.04,0.296,12.536,0.1827,0.1794,-0.8397,11.6,18.1,70.9,314.9,-5.7,-0.6,-35.3,-1.6,-0.1
2272,-25.78205667,28.23139,5.8,0,-0.114,0.229,12.591,0.2137,0.1114,-0.8238,11.6,18.1,70.9,315.2,-5.6,-0.5,-35.8,-1.4,0.2
2280,-25.78205667,28.23139,5.8,0,-0.16,0.153,12.617,0.2372,0.0623,-0.8056,11.6,18.1,70.9,315.3,-5.5,-0.3,-36.1,-1,0.5
2280,-25.78205667,28.23139,5.8,0,-0.213,0.069,12.571,0.2563,0.0324,-0.7811,11.7,18,71.1,315.4,-5.3,-0.1,-36.3,-0.7,0.7
2288,-25.78205667,28.23139,5.8,0,-0.28,0.021,12.473,0.268,0.0272,-0.7535,11.7,18,71.1,315.4,-5,0.1,-36.2,-0.3,1
2297,-25.78205667,28.23139,5.8,0,-0.349,-0.019,12.31,0.2734,0.0474,-0.7215,11.7,18,71.1,315.3,-4.7,0.3,-36.6,-0.1,1.3
2297,-25.78205667,28.23139,5.8,0,-0.43,-0.079,12.129,0.2734,0.0847,-0.6842,11.7,18,71.1,315.2,-4.4,0.4,-37.1,0.1,1.6
2305,-25.78205667,28.23139,5.8,0,-0.548,-0.158,11.987,0.2691,0.1337,-0.6395,11.7,18,71.3,315.2,-4,0.5,-37.7,0.4,2
2305,-25.78205667,28.23139,5.8,0,-0.608,-0.213,11.817,0.2606,0.1805,-0.5904,11.7,18,71.3,315.3,-3.6,0.6,-38.3,0.8,2.6
2314,-25.78205667,28.23139,5.8,0,-0.644,-0.299,11.604,0.25,0.2263,-0.5372,11.7,18,71.3,315.5,-3.2,0.6,-38.6,1,2.9
2315,-25.78205667,28.23139,5.8,0,-0.67,-0.38,11.415,0.2435,0.2647,-0.4786,11.7,18,71.3,315.7,-2.8,0.6,-38.3,1.5,3.2
2322,-25.78205667,28.23139,5.8,0,-0.682,-0.383,11.224,0.2382,0.2903,-0.4136,11.8,17.9,71.5,316,-2.4,0.5,-38.3,1.9,3.4
2331,-25.78205667,28.23139,5.8,0,-0.713,-0.258,11.085,0.2361,0.3041,-0.3487,11.8,17.9,71.5,316.4,-2,0.4,-38.5,2,3.5
2331,-25.78205667,28.23139,5.8,0,-0.694,-0.069,10.934,0.2361,0.302,-0.2762,11.8,17.9,71.5,316.9,-1.7,0.2,-40,1.3,3.7
2340,-25.78205667,28.23139,5.8,0,-0.629,0.114,10.807,0.2424,0.2871,-0.1974,11.8,17.9,71.5,317.4,-1.4,0.1,-41.7,0.4,3.6
2341,-25.78205667,28.23139,5.8,0,-0.509,0.306,10.687,0.2552,0.2604,-0.1176,11.7,17.8,71.6,317.9,-1.2,-0.1,-43,-0.6,3.3
2348,-25.78205667,28.23139,5.8,0,-0.323,0.497,10.565,0.2722,0.2232,-0.0408,11.7,17.8,71.6,318.4,-1,-0.3,-43.9,-1.6,2.7
2356,-25.78205667,28.23139,5.8,0,-0.098,0.708,10.374,0.2936,0.1827,0.0305,11.7,17.8,71.6,318.9,-0.9,-0.4,-44.1,-2.7,1.8
2356,-25.78205667,28.23139,5.8,0,0.177,0.866,10.175,0.3171,0.1444,0.0976,11.7,17.8,71.6,319.4,-0.9,-0.5,-44,-3.9,0.5
2365,-25.78205667,28.23139,5.8,0,0.483,1.005,9.931,0.3393,0.1103,0.1562,11.6,17.7,71.9,319.7,-0.9,-0.6,-42.1,-4.9,-1
2366,-25.78205667,28.23139,5.8,0,0.794,1.074,9.665,0.3575,0.0858,0.2021,11.6,17.7,71.9,320.3,-0.9,-0.7,-38.3,-5.8,-2.8
2374,-25.78205667,28.23139,5.8,0,1.096,1.103,9.356,0.3649,0.0782,0.2329,11.6,17.7,71.9,321.1,-1,-0.6,-30.9,-6.3,-4.7
2376,-25.78205667,28.23139,5.8,0,1.352,1.094,9.035,0.3629,0.0847,0.2457,11.6,17.7,71.9,321.5,-1.2,-0.6,-19.4,-6.7,-6.7
2382,-25.78205667,28.23139,5.8,0,1.596,1.048,8.789,0.349,0.1092,0.2447,11.7,17.6,72,321.6,-1.3,-0.4,-5.8,-6.8,-8.5
2391,-25.78205667,28.23139,5.8,0,1.757,1.031,8.607,0.3213,0.1444,0.2298,11.7,17.6,72,321.4,-1.4,-0.2,8.7,-6.7,-10.3
2391,-25.78205667,28.23139,5.8,0,1.527,0.814,8.64,0.2808,0.1913,0.2095,11.7,17.6,72,320.9,-1.6,0,18.3,-6.7,-11.5
2398,-25.78205667,28.23139,5.8,0,1.908,0.972,8.386,0.2361,0.2456,0.186,11.7,17.6,72,320,-1.7,0.3,5.5,-5.3,-10
2401,-25.78205667,28.23139,5.8,0,2.035,1.003,8.236,0.186,0.3223,0.1658,11.7,17.5,72.2,319.6,-1.8,0.6,26.9,-6.4,-12.8
2408,-25.78205667,28.23139,5.8,0,2.219,1.019,8.085,0.1381,0.4042,0.1519,11.7,17.5,72.2,319.2,-2,0.9,34.3,-6.7,-13.9
2416,-25.78205667,28.23139,5.8,0,2.377,1.12,7.915,0.0976,0.4703,0.1393,11.7,17.5,72.2,318.6,-2.1,1.3,42.5,-6.9,-15.3
2417,-25.78205667,28.23139,5.8,0,2.485,1.235,7.826,0.0571,0.5236,0.1265,11.7,17.5,72.2,318,-2.3,1.7,51.7,-7.7,-16.7
2425,-25.78205667,28.23139,5.8,0,2.58,1.364,7.754,0.0144,0.5577,0.1137,11.7,17.4,72.5,317.3,-2.5,2.2,59.2,-8.6,-17.6
2426,-25.78205667,28.23139,5.8,0,2.664,1.446,7.714,-0.0291,0.5768,0.0967,11.7,17.4,72.5,316.6,-2.8,2.8,66,-9.5,-18.4
2433,-25.78205667,28.23139,5.8,0,2.75,1.513,7.661,-0.0707,0.5842,0.0711,11.7,17.4,72.5,315.8,-3,3.3,70.2,-10,-19.1
2442,-25.78205667,28.23139,5.8,0,2.815,1.534,7.62,-0.1112,0.5885,0.0381,11.7,17.4,72.5,314.9,-3.4,4,73.7,-10.5,-19.7
2442,-25.78205667,28.23139,5.8,0,2.875,1.503,7.57,-0.1463,0.5885,-0.0025,11.8,17.3,72.7,313.9,-3.7,4.6,75.7,-10.7,-20.3
2450,-25.78205667,28.23139,5.8,0,2.94,1.441,7.577,-0.1804,0.5757,-0.0536,11.8,17.3,72.7,312.8,-4.1,5.3,75.4,-10.5,-20.8
2451,-25.78205667,28.23139,5.8,0,2.98,1.362,7.613,-0.2113,0.5555,-0.1154,11.8,17.3,72.7,311.7,-4.5,6.1,73.7,-10.1,-21.2
2459,-25.78205667,28.23139,5.8,0,2.999,1.288,7.735,-0.2432,0.5247,-0.1867,11.8,17.3,72.7,310.5,-4.8,6.9,71.3,-9.5,-21.4
2461,-25.78205667,28.23139,5.8,0,2.916,1.201,7.898,-0.2721,0.4841,-0.2688,11.8,17.2,72.9,308,-5.2,7.7,68.9,-8.8,-21.2
2468,-25.78205667,28.23139,5.8,0,2.789,1.122,8.152,-0.2955,0.4383,-0.353,11.8,17.2,72.9,304.4,-5.6,8.6,64.3,-8.1,-20.3
2476,-25.78205667,28.23139,5.8,0,2.597,1.065,8.434,-0.3114,0.3904,-0.4414,11.8,17.2,72.9,300.8,-6,9.4,58.3,-7.4,-18.9
2477,-25.78205667,28.23139,5.8,0,2.36,1.007,8.765,-0.3222,0.3414,-0.5244,11.8,17.2,72.9,297.4,-6.4,10.2,50.7,-6.9,-17.1
2484,-25.78205667,28.23139,5.8,0,2.08,0.95,9.124,-0.32,0.2934,-0.6022,11.9,17.2,73.1,294.4,-6.7,10.9,40,-6.3,-15.1
2486,-25.78205667,28.23139,5.8,0,1.776,0.933,9.478,-0.3105,0.2465,-0.6703,11.9,17.2,73.1,292.4,-7,11.5,25.8,-5.8,-12.8
2494,-25.78205667,28.23139,5.8,0,1.51,0.96,9.835,-0.2912,0.205,-0.7279,11.9,17.2,73.1,290.5,-7.2,12.1,10.2,-5.5,-10.6
2496,-25.78205667,28.23139,5.8,0,1.264,0.998,10.23,-0.2625,0.1678,-0.7791,12,17.1,73.2,288.4,-7.3,12.5,-4.2,-5.5,-8.7
2502,-25.78205667,28.23139,5.8,0,1.063,1.022,10.663,-0.2263,0.1284,-0.8195,12,17.1,73.2,286.2,-7.5,12.9,-16.4,-5.5,-7
2510,-25.78205667,28.23139,5.8,0,0.914,1.007,11.092,-0.1826,0.089,-0.8515,12,17.1,73.2,284.5,-7.5,13.1,-25,-5.4,-5.7
2511,-25.78205667,28.23139,5.8,0,0.761,0.962,11.489,-0.1357,0.0591,-0.877,12,17.1,73.2,283.1,-7.5,13.2,-29.8,-5.2,-4.7
2519,-25.78205667,28.23139,5.8,0,0.675,0.914,11.784,-0.0868,0.0517,-0.9016,12,17.1,73.2,282,-7.5,13.2,-33.2,-4.8,-3.8
2521,-25.78205667,28.23139,5.8,0,0.617,0.854,11.966,-0.0377,0.0782,-0.9239,12,17,73.4,281.3,-7.4,13.1,-34.6,-4.4,-3.3
2527,-25.78205667,28.23139,5.8,0,0.572,0.806,12.023,0.0135,0.1337,-0.9442,12,17,73.4,280.9,-7.2,12.9,-34.9,-4.1,-3
2536,-25.78205667,28.23139,5.8,0,0.514,0.756,11.963,0.0582,0.2104,-0.9644,12,17,73.4,280.8,-7.1,12.6,-35.1,-3.8,-2.7
2536,-25.78205667,28.23139,5.8,0,0.452,0.708,11.829,0.0954,0.3031,-0.9824,11.8,16.9,73.5,280.9,-7,12.2,-35.1,-3.6,-2.5
2545,-25.78205667,28.23139,5.8,0,0.316,0.636,11.643,0.1221,0.4085,-1.0017,11.8,16.9,73.5,281.3,-6.8,11.8,-35.7,-3.4,-2.2
2546,-25.78205667,28.23139,5.8,0,0.162,0.555,11.41,0.1402,0.5225,-1.0176,11.8,16.9,73.5,281.8,-6.7,11.5,-37.2,-3.1,-1.6
2554,-25.78205667,28.23139,5.8,0,-0.011,0.486,11.159,0.1455,0.6365,-1.0336,11.8,16.9,73.5,282.5,-6.6,11,-38.9,-2.8,-0.8
2562,-25.78205667,28.23139,5.8,0,-0.189,0.387,10.891,0.1402,0.7419,-1.0421,11.6,16.8,73.6,283.3,-6.4,10.5,-40.7,-2.5,0.1
2562,-25.78205667,28.23139,5.8,0,-0.349,0.258,10.618,0.1253,0.8335,-1.0464,11.6,16.8,73.6,284.3,-6.2,9.9,-42.2,-2,1
2570,-25.78205667,28.23139,5.8,0,-0.529,0.079,10.429,0.1062,0.9039,-1.0421,11.6,16.8,73.6,285.4,-6,9.3,-43,-1.4,1.9
2571,-25.78205667,28.23139,5.8,0,-0.703,-0.146,10.283,0.0848,0.9549,-1.0304,11.6,16.8,73.6,286.7,-5.7,8.7,-43.3,-0.4,2.9
2579,-25.78205667,28.23139,5.8,0,-0.864,-0.368,10.125,0.0688,0.9859,-1.0091,11.5,16.8,73.7,288.2,-5.4,8,-42.8,0.8,3.9
2581,-25.78205667,28.23139,5.8,0,-0.981,-0.529,9.9,0.0593,1.0018,-0.9804,11.5,16.8,73.7,290,-5,7.3,-42.4,2.1,4.9
2587,-25.78205667,28.23139,5.8,0,-1.055,-0.677,9.696,0.0593,0.9998,-0.9463,11.5,16.8,73.7,291.5,-4.5,6.5,-42.3,3,5.7
2596,-25.78205667,28.23139,5.8,0,-1.118,-0.837,9.442,0.0635,0.9699,-0.9101,11.5,16.8,73.7,293.2,-4.1,5.8,-41.8,4,6.2
2596,-25.78205667,28.23139,5.8,0,-1.161,-1.005,9.188,0.0741,0.9167,-0.8727,11.5,16.8,73.7,295.2,-3.6,5,-41.1,5,6.8
2605,-25.78205667,28.23139,5.8,0,-1.173,-1.17,8.98,0.088,0.8389,-0.828,11.3,16.6,73.7,298.5,-3.1,4.2,-40.2,6.2,7.2
2606,-25.78205667,28.23139,5.8,0,-1.173,-1.3,8.781,0.0997,0.744,-0.7758,11.3,16.6,73.7,302.2,-2.7,3.4,-39,7.4,7.4
2613,-25.78205667,28.23139,5.8,0,-1.225,-1.448,8.599,0.1093,0.6385,-0.7129,11.3,16.6,73.7,306.2,-2.2,2.6,-38,8.3,7.6
2621,-25.78205667,28.23139,5.8,0,-1.201,-1.513,8.463,0.1167,0.5299,-0.6416,11.2,16.5,73.8,310.2,-1.7,1.8,-37.5,9.5,8.1
2622,-25.78205667,28.23139,5.8,0,-1.094,-1.575,8.305,0.1199,0.4287,-0.567,11.2,16.5,73.8,311.7,-1.2,1.1,-36.8,10,8.1
2631,-25.78205667,28.23139,5.8,0,-1.003,-1.651,8.171,0.1199,0.3446,-0.4829,11.2,16.5,73.8,313.3,-0.7,0.4,-35.1,10.6,7.5
2631,-25.78205667,28.23139,5.8,0,-0.905,-1.731,8.046,0.1221,0.2636,-0.3988,11.2,16.5,73.8,314.9,-0.2,-0.2,-33.6,11.3,7
2639,-25.78205667,28.23139,5.8,0,-0.806,-1.685,7.965,0.1306,0.1933,-0.3189,11,16.3,73.8,316.5,0.3,-0.8,-31.7,12.1,6.4
2641,-25.78205667,28.23139,5.8,0,-0.694,-1.632,7.781,0.1402,0.1379,-0.2464,11,16.3,73.8,318,0.8,-1.3,-30.7,11.9,5.8
2647,-25.78205667,28.23139,5.8,0,-0.598,-1.699,7.52,0.1551,0.1114,-0.1856,11,16.3,73.8,319.5,1.3,-1.7,-29.6,11.8,5.1
2656,-25.78205667,28.23139,5.8,0,-0.457,-1.764,7.228,0.1722,0.1028,-0.1346,11,16.3,73.8,322.9,1.8,-2.1,-27.8,12.7,4.5
2656,-25.78205667,28.23139,5.8,0,-0.337,-1.812,6.924,0.1881,0.1049,-0.0909,10.9,16.2,73.8,326.8,2.4,-2.4,-25.3,13.7,3.6
2665,-25.78205667,28.23139,5.8,0,-0.225,-1.817,6.643,0.1998,0.1145,-0.0622,10.9,16.2,73.8,330.4,3,-2.6,-23,14.6,2.8
2666,-25.78205667,28.23139,5.8,0,-0.179,-1.769,6.414,0.2094,0.1316,-0.0462,10.9,16.2,73.8,333.6,3.6,-2.9,-21,15.3,1.9
2674,-25.78205667,28.23139,5.8,0,-0.167,-1.719,6.203,0.219,0.1475,-0.0397,10.9,16.2,73.8,336,4.2,-3.1,-20.3,15.4,1.6
2682,-25.78205667,28.23139,5.8,0,-0.227,-1.625,6.042,0.2296,0.1561,-0.0397,10.7,16,73.7,337.6,4.8,-3.3,-20,15.5,1.5
2682,-25.78205667,28.23139,5.8,0,-0.306,-1.527,5.906,0.2403,0.1529,-0.0494,10.7,16,73.7,339.2,5.4,-3.6,-21.4,15,2.2
2690,-25.78205667,28.23139,5.8,0,-0.414,-1.381,5.801,0.252,0.1326,-0.0685,10.7,16,73.7,340.8,6,-3.8,-23.3,14.5,3
2691,-25.78205667,28.23139,5.8,0,-0.536,-1.249,5.705,0.2659,0.0932,-0.0972,10.7,16,73.7,342.7,6.6,-4.1,-26.3,13.4,4.1
2699,-25.78205667,28.23139,5.8,0,-0.691,-1.115,5.693,0.2808,0.0272,-0.1346,10.5,15.8,73.8,344.4,7.2,-4.4,-29.4,12.3,5.4
2701,-25.78205667,28.23139,5.8,0,-0.869,-0.986,5.717,0.2936,-0.0623,-0.1793,10.5,15.8,73.8,346.1,7.7,-4.7,-33.5,11,6.9
2707,-25.78205667,28.23139,5.8,0,-1.079,-0.909,5.793,0.3043,-0.1785,-0.2294,10.5,15.8,73.8,347.7,8.2,-5,-37.9,9.7,8.6
2716,-25.78205667,28.23139,5.8,0,-1.345,-0.895,5.951,0.3117,-0.3116,-0.2816,10.5,15.8,73.8,349.2,8.7,-5.3,-42.1,8.8,10.6
2716,-25.78205667,28.23139,5.8,0,-1.654,-0.95,6.155,0.318,-0.4586,-0.3359,10.5,15.8,73.8,350.6,9.2,-5.6,-45.9,8.3,12.7
2725,-25.78205667,28.23139,5.8,0,-1.939,-1.007,6.342,0.3202,-0.6077,-0.3902,10.3,15.7,73.7,352,9.6,-6,-48.7,8.5,15
2726,-25.78205667,28.23139,5.8,0,-2.236,-1.082,6.564,0.3128,-0.7484,-0.4477,10.3,15.7,73.7,353.4,10,-6.4,-50.8,8.6,17
2733,-25.78205667,28.23139,5.8,0,-2.468,-1.127,6.816,0.2925,-0.8667,-0.5063,10.3,15.7,73.7,354.8,10.3,-6.8,-52.5,8.9,18.8
2741,-25.78205667,28.23139,5.8,0,-2.657,-1.175,7.103,0.2563,-0.9529,-0.5639,10.1,15.5,73.7,355.4,10.6,-7.3,-53.7,8.8,19.9
2742,-25.78205667,28.23139,5.8,0,-2.856,-1.24,7.426,0.2105,-1.0083,-0.6128,10.1,15.5,73.7,355.8,10.9,-7.8,-54.3,8.8,20.5
2751,-25.78205667,28.23139,5.8,0,-3.019,-1.283,7.723,0.1562,-1.0274,-0.6469,10.1,15.5,73.7,356.3,11.1,-8.3,-54.8,8.9,21
2752,-25.78205667,28.23139,5.8,0,-3.157,-1.276,7.97,0.0986,-1.0051,-0.6651,10.1,15.5,73.7,356.8,11.2,-8.9,-55.1,8.8,21.4
2759,-25.78205667,28.23139,5.8,0,-3.26,-1.237,8.164,0.038,-0.9486,-0.6714,10.1,15.3,73.7,357.3,11.3,-9.4,-55.9,8.5,21.6
2761,-25.78205667,28.23139,5.8,0,-3.337,-1.175,8.324,-0.0217,-0.8698,-0.6693,10.1,15.3,73.7,357.8,11.3,-10,-56.6,8,21.8
2767,-25.78205667,28.23139,5.8,0,-3.366,-1.113,8.463,-0.0792,-0.7782,-0.6597,10.1,15.3,73.7,358.3,11.3,-10.6,-57.3,7.5,21.8
2776,-25.78205667,28.23139,5.8,0,-3.368,-1.06,8.559,-0.1326,-0.6823,-0.6491,10.1,15.3,73.7,358.8,11.2,-11.1,-57.8,7,21.7
2776,-25.78205667,28.23139,5.8,0,-3.385,-0.995,8.623,-0.1837,-0.5853,-0.6363,9.8,15.2,73.7,359.4,11,-11.7,-58,6.6,21.5
2785,-25.78205667,28.23139,5.8,0,-3.363,-0.924,8.674,-0.2306,-0.4969,-0.6245,9.8,15.2,73.7,360,10.8,-12.3,-58.5,6.1,21.4
2787,-25.78205667,28.23139,5.8,0,-3.351,-0.842,8.743,-0.2731,-0.4224,-0.6108,9.8,15.2,73.7,0.6,10.6,-12.9,-58.9,5.7,21.2
2793,-25.78205667,28.23139,5.8,0,-3.332,-0.744,8.82,-0.3083,-0.3649,-0.5915,9.8,15.2,73.7,1.3,10.3,-13.5,-59.4,5.1,21
2802,-25.78205667,28.23139,5.8,0,-3.32,-0.648,8.923,-0.3381,-0.3244,-0.5681,9.5,15.1,73.7,1.9,10,-14.1,-60,4.5,20.7
2802,-25.78205667,28.23139,5.8,0,-3.287,-0.545,9.069,-0.3572,-0.3031,-0.5383,9.5,15.1,73.7,2.7,9.7,-14.7,-60.6,3.9,20.4
2810,-25.78205667,28.23139,5.8,0,-3.217,-0.438,9.239,-0.3657,-0.2999,-0.5053,9.5,15.1,73.7,3.5,9.3,-15.3,-61.1,3.2,19.9
2812,-25.78205667,28.23139,5.8,0,-3.078,-0.347,9.349,-0.3637,-0.3052,-0.4733,9.5,15.1,73.7,4.4,8.8,-15.9,-61.5,2.6,19.2
2819,-25.78205667,28.23139,5.8,0,-2.894,-0.234,9.366,-0.3498,-0.3084,-0.4371,9.4,14.9,73.7,5.7,8.4,-16.4,-61.7,2,18.2
2828,-25.78205667,28.23139,5.8,0,-2.614,-0.086,9.313,-0.3264,-0.3062,-0.4008,9.4,14.9,73.7,8.4,7.9,-16.8,-61.8,1.4,17.2
2828,-25.78205667,28.23139,5.8,0,-2.286,0.071,9.153,-0.2977,-0.2882,-0.3625,9.4,14.9,73.7,11.2,7.4,-17.2,-61.9,0.5,15.7
2836,-25.78205667,28.23139,5.8,0,-1.924,0.251,8.916,-0.2688,-0.2552,-0.3242,9.4,14.9,73.7,14.1,6.8,-17.5,-62,-0.4,14
2837,-25.78205667,28.23139,5.8,0,-1.52,0.43,8.609,-0.2465,-0.2083,-0.2922,9.4,14.9,73.7,16.9,6.3,-17.6,-62.4,-1.6,12.2
2844,-25.78205667,28.23139,5.8,0,-1.113,0.605,8.281,-0.2326,-0.1433,-0.2709,9.3,14.7,73.7,19.5,5.8,-17.7,-62.9,-2.8,10
2846,-25.78205667,28.23139,5.8,0,-0.756,0.766,7.996,-0.2284,-0.073,-0.2634,9.3,14.7,73.7,21.4,5.3,-17.6,-63.4,-4.1,7.7
2853,-25.78205667,28.23139,5.8,0,-0.464,0.897,7.709,-0.2349,-0.0059,-0.2731,9.3,14.7,73.7,23,4.8,-17.5,-64.3,-5.4,5.4
2862,-25.78205667,28.23139,5.8,0,-0.244,0.993,7.445,-0.2475,0.0527,-0.2901,9,14.6,73.6,24.4,4.3,-17.3,-65.6,-6.6,3.4
2862,-25.78205667,28.23139,5.8,0,-0.093,1.06,7.24,-0.2668,0.0964,-0.3135,9,14.6,73.6,26.1,3.9,-17,-67.2,-7.6,1.9
2870,-25.78205667,28.23139,5.8,0,0.019,1.096,7.105,-0.2934,0.1188,-0.3465,9,14.6,73.6,27.9,3.4,-16.7,-69.1,-8.3,0.7
2872,-25.78205667,28.23139,5.8,0,0.105,1.11,7.053,-0.3264,0.1114,-0.3849,9,14.6,73.6,29.3,2.9,-16.3,-70,-8.8,-0.2
2879,-25.78205667,28.23139,5.8,0,0.177,1.151,7.053,-0.3679,0.0708,-0.434,9,14.4,73.6,30.5,2.4,-15.8,-70.4,-8.9,-0.9
2887,-25.78205667,28.23139,5.8,0,0.234,1.189,7.161,-0.4095,-0.0037,-0.4914,9,14.4,73.6,31.5,1.9,-15.2,-71.6,-9.3,-1.4
2887,-25.78205667,28.23139,5.8,0,0.241,1.216,7.374,-0.4553,-0.1166,-0.5574,9,14.4,73.6,32.1,1.3,-14.6,-71.8,-9.4,-1.9
2895,-25.78205667,28.23139,5.8,0,0.181,1.17,7.692,-0.501,-0.2626,-0.6256,9,14.4,73.6,32.5,0.8,-14,-71.2,-9.4,-1.9
2897,-25.78205667,28.23139,5.8,0,0.105,1.094,8.056,-0.5459,-0.4256,-0.6885,9,14.4,73.6,32.6,0.2,-13.3,-66.3,-8.6,-1.3
2904,-25.78205667,28.23139,5.8,0,0.059,1.012,8.444,-0.5874,-0.5737,-0.745,9,14.2,73.6,32.2,-0.3,-12.6,-62.5,-7.7,-0.7
2907,-25.78205667,28.23139,5.8,0,0.026,0.924,8.769,-0.63,-0.6802,-0.795,9,14.2,73.6,31.7,-0.9,-11.9,-57.7,-6.8,-0.4
2913,-25.78205667,28.23139,5.8,0,0.04,0.83,9.023,-0.6693,-0.7292,-0.8397,9,14.2,73.6,30.7,-1.4,-11.1,-53.7,-6,-0.2
2921,-25.78205667,28.23139,5.8,0,0.107,0.727,9.248,-0.7045,-0.7206,-0.8738,8.9,14,73.6,29.2,-1.8,-10.4,-50.2,-5.3,-0.3
2922,-25.78205667,28.23139,5.8,0,0.191,0.648,9.452,-0.7355,-0.6674,-0.9005,8.9,14,73.6,27.1,-2.2,-9.6,-44.7,-4.5,-0.7
2930,-25.78205667,28.23139,5.8,0,0.296,0.567,9.624,-0.7631,-0.5875,-0.9218,8.9,14,73.6,24.5,-2.6,-8.7,-39.9,-3.9,-1.2
2932,-25.78205667,28.23139,5.8,0,0.421,0.517,9.72,-0.7866,-0.4863,-0.942,8.9,14,73.6,22.1,-2.9,-7.9,-34.8,-3.4,-1.8
2939,-25.78205667,28.23139,5.8,0,0.538,0.481,9.746,-0.8047,-0.3766,-0.9633,9.1,13.7,73.5,18.4,-3.3,-7,-31,-3,-2.5
2947,-25.78205667,28.23139,5.8,0,0.632,0.445,9.725,-0.8122,-0.2786,-0.9857,9.1,13.7,73.5,57.4,-3.5,-6.1,-26.4,-2.8,-3.2
2947,-25.78205667,28.23139,5.8,0,0.691,0.411,9.694,-0.8174,-0.205,-1.0113,9.1,13.7,73.5,50.2,-3.8,-5.2,-22.5,-2.6,-3.7
2955,-25.78205667,28.23139,5.8,0,0.737,0.33,9.66,-0.8174,-0.1603,-1.0401,9.1,13.7,73.5,92.3,-4,-4.3,-19.8,-2.4,-4.1
2957,-25.78205667,28.23139,5.8,0,0.754,0.253,9.672,-0.8132,-0.1518,-1.0709,9.2,13.4,73.5,134.2,-4.2,-3.4,-18,-2,-4.4
2964,-25.78205667,28.23139,5.8,0,0.816,0.153,9.682,-0.8069,-0.1752,-1.104,9.2,13.4,73.5,220.7,-4.3,-2.5,-16.5,-1.5,-4.5
2973,-25.78205667,28.23139,5.8,0,0.869,0.04,9.713,-0.7961,-0.2211,-1.1381,9.2,13.4,73.5,256.5,-4.4,-1.7,-13.5,-0.9,-4.8
2973,-25.78205667,28.23139,5.8,0,0.96,-0.069,9.718,-0.7813,-0.2828,-1.1731,9.2,13.4,73.5,292.3,-4.5,-0.8,-11.1,-0.2,-5.1
2982,-25.78205667,28.23139,5.8,0,1.06,-0.177,9.77,-0.7611,-0.3574,-1.2072,9.2,13.1,73.4,328.2,-4.5,0,-8.1,0.4,-5.6
2982,-25.78205667,28.23139,5.8,0,1.175,-0.296,9.871,-0.7376,-0.4437,-1.2456,9.2,13.1,73.4,319.6,-4.4,0.7,-4.8,1,-6.2
2991,-25.78205667,28.23139,5.8,0,1.29,-0.371,10.067,-0.7099,-0.5418,-1.2882,9.2,13.1,73.4,316.9,-4.3,1.4,-1.7,1.7,-6.8
2992,-25.78205667,28.23139,5.8,0,1.383,-0.457,10.299,-0.6758,-0.645,-1.332,9.2,13.1,73.4,314.5,-4.1,2,0.8,2.1,-7.3
2999,-25.78205667,28.23139,5.8,0,1.551,-0.56,10.457,-0.6374,-0.7377,-1.3724,9.5,12.7,73.4,312.7,-3.8,2.5,1.3,2.5,-7.6
3007,-25.78205667,28.23139,5.8,0,1.702,-0.715,10.594,-0.5917,-0.8112,-1.415,9.5,12.7,73.4,311.2,-3.5,3,4.7,3,-8.4
3007,-25.78205667,28.23139,5.8,0,1.838,-0.893,10.771,-0.5511,-0.857,-1.4587,9.5,12.7,73.4,310.2,-3.1,3.4,7.3,3.8,-9.1
3016,-25.78205667,28.23139,5.8,0,1.922,-1.058,10.946,-0.5138,-0.8762,-1.5088,9.5,12.7,73.4,308.4,-2.7,3.8,9.1,4.7,-9.7
3017,-25.78205667,28.23139,5.8,0,1.968,-1.204,11.075,-0.4734,-0.8709,-1.5535,9.6,12.4,73.3,307.2,-2.2,4.2,9.4,5.4,-10
3025,-25.78205667,28.23139,5.8,0,1.963,-1.328,11.252,-0.4351,-0.8432,-1.5929,9.6,12.4,73.3,306.6,-1.7,4.5,9.4,6.1,-10.1
3027,-25.78205667,28.23139,5.8,0,1.922,-1.482,11.355,-0.3935,-0.8027,-1.6291,9.6,12.4,73.3,306.6,-1.2,4.8,8.5,6.6,-9.9
3034,-25.78205667,28.23139,5.8,0,1.829,-1.628,11.362,-0.3466,-0.7484,-1.6558,9.6,12.4,73.3,307,-0.7,5.1,7.2,7.3,-9.6
3042,-25.78205667,28.23139,5.8,0,1.716,-1.764,11.305,-0.2934,-0.6845,-1.676,10.1,12,73.2,307.8,-0.1,5.3,4.4,8.1,-9.1
3042,-25.78205667,28.23139,5.8,0,1.592,-1.879,11.204,-0.2432,-0.6216,-1.6888,10.1,12,73.2,308.8,0.5,5.5,2.6,8.8,-8.6
3051,-25.78205667,28.23139,5.8,0,1.443,-1.984,11.111,-0.1932,-0.5662,-1.6941,10.1,12,73.2,309.9,1,5.7,0.8,9.4,-8.1
3052,-25.78205667,28.23139,5.8,0,1.24,-2.051,11.013,-0.1442,-0.5204,-1.6888,10.1,12,73.2,310.4,1.6,5.9,-1.2,10,-7.4
3059,-25.78205667,28.23139,5.8,0,0.969,-2.092,10.953,-0.0996,-0.4884,-1.6749,10.3,11.6,73.2,310.8,2.2,6.1,-4.7,10.5,-6.4
3067,-25.78205667,28.23139,5.8,0,0.675,-2.099,10.912,-0.0558,-0.4756,-1.6441,10.3,11.6,73.2,311.3,2.7,6.2,-8.6,10.8,-5.1
3068,-25.78205667,28.23139,5.8,0,0.356,-2.044,10.931,-0.0143,-0.4884,-1.6015,10.3,11.6,73.2,311.7,3.2,6.3,-12.8,10.9,-3.5
3075,-25.78205667,28.23139,5.8,0,0.083,-1.946,10.958,0.0209,-0.5236,-1.5418,10.3,11.6,73.2,312.2,3.7,6.3,-17.6,10.6,-1.9
3077,-25.78205667,28.23139,5.8,0,-0.167,-1.764,10.948,0.055,-0.5683,-1.4693,10.7,11.2,73.1,312.6,4.2,6.3,-23.1,10.1,-0.4
3084,-25.78205667,28.23139,5.8,0,-0.304,-1.551,10.96,0.0806,-0.6163,-1.3863,10.7,11.2,73.1,313.1,4.6,6.1,-27.5,9.2,0.9
3093,-25.78205667,28.23139,5.8,0,-0.306,-1.316,10.879,0.0954,-0.6685,-1.2914,10.7,11.2,73.1,313.5,4.9,6,-30.9,8.1,1.6
3093,-25.78205667,28.23139,5.8,0,-0.107,-1.175,10.783,0.0965,-0.7186,-1.1945,10.7,11.2,73.1,314,5.2,5.8,-32.7,6.9,1.6
3102,-25.78205667,28.23139,5.8,0,0.193,-1.084,10.663,0.0784,-0.759,-1.1049,11,10.9,73,314.4,5.5,5.7,-32.1,6.2,0.6
3102,-25.78205667,28.23139,5.8,0,0.538,-1.046,10.546,0.0433,-0.7825,-1.0284,11,10.9,73,314.8,5.8,5.5,-28,5.8,-1
3110,-25.78205667,28.23139,5.8,0,0.888,-1.019,10.453,-0.0069,-0.7866,-0.9633,11,10.9,73,315.1,6,5.5,-22,5.7,-2.9
3112,-25.78205667,28.23139,5.8,0,1.158,-1.005,10.409,-0.0664,-0.7792,-0.9111,11,10.9,73,315.4,6.2,5.5,-15,5.5,-4.9
3118,-25.78205667,28.23139,5.8,0,1.355,-1,10.426,-0.1337,-0.7633,-0.8695,11.5,10.5,72.9,315.7,6.4,5.5,-11,5.5,-6.3
3127,-25.78205667,28.23139,5.8,0,1.482,-1.017,10.479,-0.2007,-0.7451,-0.8354,11.5,10.5,72.9,315.9,6.6,5.6,-6.7,5.4,-7.4
3127,-25.78205667,28.23139,5.8,0,1.541,-1,10.56,-0.2636,-0.7249,-0.8099,11.5,10.5,72.9,316,6.7,5.7,-4,5.5,-8
3136,-25.78205667,28.23139,5.8,0,1.57,-0.952,10.608,-0.3157,-0.7036,-0.7928,11.5,10.5,72.9,316.1,6.8,5.8,-2.9,5.4,-8.3
3138,-25.78205667,28.23139,5.8,0,1.551,-0.845,10.611,-0.3541,-0.6865,-0.7811,12,10.2,72.8,316.1,6.9,5.8,-4.2,5.1,-8.4
3144,-25.78205667,28.23139,5.8,0,1.534,-0.723,10.596,-0.3807,-0.6854,-0.7695,12,10.2,72.8,316.1,7,5.9,-4.8,4.5,-8.3
3153,-25.78205667,28.23139,5.8,0,1.529,-0.665,10.635,-0.3989,-0.711,-0.7567,12,10.2,72.8,316,7.1,5.9,-5.4,3.9,-8.2
3154,-25.78205667,28.23139,5.8,0,1.549,-0.679,10.737,-0.4106,-0.7579,-0.7418,12,10.2,72.8,315.9,7.1,5.9,-5.9,3.5,-8.2
3163,-25.78205667,28.23139,5.8,0,1.592,-0.696,10.905,-0.4202,-0.807,-0.7311,12.5,9.8,72.8,315.8,7.1,5.8,-7.6,3.6,-8.2
3163,-25.78205667,28.23139,5.8,0,1.659,-0.672,11.049,-0.4234,-0.8496,-0.7215,12.5,9.8,72.8,315.7,7,5.8,-7.1,3.6,-8.3
3170,-25.78205667,28.23139,5.8,0,1.747,-0.672,11.161,-0.4169,-0.8826,-0.7109,12.5,9.8,72.8,315.5,7,5.7,-6.1,3.4,-8.5
3172,-25.78205667,28.23139,5.8,0,1.853,-0.72,11.235,-0.4041,-0.9017,-0.697,12.5,9.8,72.8,315.4,6.9,5.7,-4.2,3.4,-8.9
3178,-25.78205667,28.23139,5.8,0,1.972,-0.816,11.367,-0.3861,-0.9049,-0.6885,13,9.5,72.7,315.2,6.8,5.7,-3.9,3.6,-9.4
3187,-25.78205667,28.23139,5.8,0,2.061,-0.916,11.528,-0.37,-0.8911,-0.6842,13,9.5,72.7,315,6.6,5.7,-1.4,4,-9.8
3187,-25.78205667,28.23139,5.8,0,2.092,-0.984,11.645,-0.3498,-0.8591,-0.6821,13,9.5,72.7,314.8,6.5,5.7,0.1,4.5,-10.1
3195,-25.78205667,28.23139,5.8,0,2.035,-1.058,11.75,-0.3242,-0.8165,-0.681,13,9.5,72.7,314.6,6.4,5.8,0.3,4.8,-10.2
3197,-25.78205667,28.23139,5.8,0,1.944,-1.139,11.889,-0.2998,-0.7686,-0.6779,13.4,9.2,72.6,314.3,6.2,5.9,-2.9,5.1,-9.8
3204,-25.78205667,28.23139,5.8,0,1.812,-1.161,12.073,-0.2668,-0.7089,-0.6746,13.4,9.2,72.6,314,6.1,5.9,-5.3,5.4,-9.3
3212,-25.78205667,28.23139,5.8,0,1.64,-1.12,12.27,-0.2358,-0.6344,-0.6672,13.4,9.2,72.6,313.7,5.9,6,-8.7,5.4,-8.5
3213,-25.78205667,28.23139,5.8,0,1.467,-1.074,12.445,-0.2028,-0.5418,-0.6555,13.4,9.2,72.6,313.3,5.7,6.1,-13,5.2,-7.6
3221,-25.78205667,28.23139,5.8,0,1.371,-1.048,12.593,-0.1709,-0.433,-0.6363,13.9,8.9,72.6,312.9,5.5,6.2,-19.1,4.9,-6.7
3223,-25.78205667,28.23139,5.8,0,1.331,-1.065,12.679,-0.1389,-0.302,-0.6075,13.9,8.9,72.6,312.5,5.3,6.4,-21.5,4.7,-6.2
3230,-25.78205667,28.23139,5.8,0,1.355,-1.043,12.708,-0.107,-0.1379,-0.5702,13.9,8.9,72.6,312.1,5.1,6.5,-22.4,4.8,-6
3233,-25.78205667,28.23139,5.8,0,1.41,-0.974,12.703,-0.076,0.0506,-0.5298,13.9,8.9,72.6,311.7,5,6.8,-22.2,4.7,-6.1
3238,-25.78205667,28.23139,5.8,0,1.525,-0.905,12.617,-0.0388,0.2476,-0.4861,14.6,8.6,72.6,311.2,4.8,7,-24.5,4.4,-6.3
3246,-25.78205667,28.23139,5.8,0,1.663,-0.837,12.521,0.0016,0.4287,-0.4425,14.6,8.6,72.6,310.8,4.8,7.3,-22.5,4.1,-6.9
3248,-25.78205667,28.23139,5.8,0,1.771,-0.766,12.397,0.0518,0.5822,-0.4008,14.6,8.6,72.6,310.3,4.7,7.5,-19.9,3.8,-7.6
3255,-25.78205667,28.23139,5.8,0,1.893,-0.751,12.239,0.1114,0.6951,-0.3657,14.6,8.6,72.6,309.6,4.6,7.8,-17.6,3.5,-8.1
3257,-25.78205667,28.23139,5.8,0,1.989,-0.806,12.078,0.1818,0.7707,-0.3402,15.1,8.4,72.5,308.2,4.5,7.9,-16.5,3.5,-8.8
3264,-25.78205667,28.23139,5.8,0,2.049,-0.926,11.932,0.2585,0.8144,-0.3252,15.1,8.4,72.5,307,4.5,8.1,-13.1,3.8,-9.4
3273,-25.78205667,28.23139,5.8,0,2.078,-1.046,11.786,0.3373,0.8207,-0.32,15.1,8.4,72.5,305.8,4.4,8.2,-10.4,4.4,-9.7
3274,-25.78205667,28.23139,5.8,0,2.006,-1.204,11.664,0.4161,0.792,-0.3178,15.1,8.4,72.5,304.8,4.4,8.3,-8.6,5,-10
3281,-25.78205667,28.23139,5.8,0,1.845,-1.319,11.631,0.4939,0.7292,-0.3146,15.6,8.1,72.5,303.9,4.4,8.3,-11.3,5.8,-9.8
3282,-25.78205667,28.23139,5.8,0,1.654,-1.386,11.664,0.5642,0.6504,-0.3081,15.6,8.1,72.5,303.1,4.5,8.4,-14,6.4,-9
3290,-25.78205667,28.23139,5.8,0,1.46,-1.429,11.772,0.6249,0.5705,-0.2922,15.6,8.1,72.5,302.5,4.5,8.3,-17.6,6.7,-8.1
3299,-25.78205667,28.23139,5.8,0,1.331,-1.458,12.004,0.6781,0.5077,-0.2612,15.6,8.1,72.5,302,4.6,8.3,-21.3,6.9,-7.1
3299,-25.78205667,28.23139,5.8,0,1.254,-1.525,12.322,0.7282,0.4554,-0.2112,16.3,7.9,72.5,301.7,4.7,8.2,-26.1,6.9,-6.3
3307,-25.78205667,28.23139,5.8,0,1.235,-1.647,12.641,0.7793,0.4085,-0.1452,16.3,7.9,72.5,301.4,4.8,8.2,-27.7,7,-5.8
3308,-25.78205667,28.23139,5.8,0,1.209,-1.848,12.952,0.8305,0.3701,-0.0674,16.3,7.9,72.5,301.3,5,8.1,-27.9,7.4,-5.6
3316,-25.78205667,28.23139,5.8,0,1.139,-2.111,13.225,0.8805,0.352,0.0157,16.3,7.9,72.5,301.3,5.1,8,-27.5,8.1,-5.3
3317,-25.78205667,28.23139,5.8,0,1.034,-2.391,13.469,0.9252,0.369,0.1019,17,7.6,72.5,301.4,5.3,7.8,-29.2,9,-4.9
3324,-25.78205667,28.23139,5.8,0,0.972,-2.559,13.601,0.9615,0.4235,0.1968,17,7.6,72.5,301.6,5.5,7.7,-29.2,10,-4.4
3333,-25.78205667,28.23139,5.8,0,0.96,-2.607,13.575,0.9914,0.5247,0.3065,17,7.6,72.5,301.9,5.8,7.5,-29.2,10.6,-4.1
3333,-25.78205667,28.23139,5.8,0,0.976,-2.523,13.52,1.017,0.6674,0.429,17,7.6,72.5,302.4,6,7.3,-29,10.8,-4
3342,-25.78205667,28.23139,5.8,0,1.019,-2.334,13.369,1.0329,0.8315,0.5567,17.5,7.4,72.5,302.9,6.2,7.1,-30.4,10.5,-4.1
3342,-25.78205667,28.23139,5.8,0,1.103,-2.082,13.117,1.0383,0.9912,0.6826,17.5,7.4,72.5,303.4,6.4,6.9,-30.8,9.9,-4.4
3350,-25.78205667,28.23139,5.8,0,1.223,-1.795,12.816,1.0383,1.1414,0.8071,17.5,7.4,72.5,304,6.5,6.7,-31,9,-4.8
3359,-25.78205667,28.23139,5.8,0,1.379,-1.489,12.459,1.0318,1.2863,0.9233,17.5,7.4,72.5,304.6,6.6,6.6,-30.9,7.9,-5.5
3359,-25.78205667,28.23139,5.8,0,1.522,-1.13,12.143,1.0201,1.4248,1.0266,17.9,7.3,72.4,305.1,6.7,6.5,-31.6,6.8,-6.3
3367,-25.78205667,28.23139,5.8,0,1.651,-0.766,11.817,1.002,1.5504,1.1139,17.9,7.3,72.4,305.5,6.7,6.5,-31.9,5.3,-7.1
3368,-25.78205667,28.23139,5.8,0,1.771,-0.39,11.48,0.9807,1.6581,1.18,17.9,7.3,72.4,305.8,6.6,6.5,-32.6,3.7,-8
3376,-25.78205667,28.23139,5.8,0,1.915,-0.043,11.116,0.9584,1.755,1.2227,17.9,7.3,72.4,305.9,6.6,6.6,-34.2,1.9,-8.8
3378,-25.78205667,28.23139,5.8,0,2.059,0.323,10.62,0.9349,1.8392,1.2407,18.5,7.2,72.3,305.7,6.4,6.7,-38.7,0.2,-9.8
3384,-25.78205667,28.23139,5.8,0,2.193,0.648,10.007,0.9104,1.9202,1.2354,18.5,7.2,72.3,305.4,6.3,6.9,-41.8,-1.7,-11
3393,-25.78205667,28.23139,5.8,0,2.217,0.924,9.366,0.8859,1.9968,1.2108,18.5,7.2,72.3,304.8,6.1,7.1,-47,-3.6,-12.4
3393,-25.78205667,28.23139,5.8,0,2.176,1.084,8.657,0.8561,2.0533,1.163,18.5,7.2,72.3,304.1,5.8,7.2,-90.2,-5.5,-13.3
3402,-25.78205667,28.23139,5.8,0,2.209,1.355,7.817,0.8145,2.08,1.0959,19,7.1,72.3,303.2,5.6,7.4,-159.2,-6.9,-14.1
3403,-25.78205667,28.23139,5.8,0,2.219,1.52,6.967,0.7634,2.0587,1.0127,19,7.1,72.3,302.2,5.3,7.6,165.2,-9.5,-15.8
3410,-25.78205667,28.23139,5.8,0,2.185,1.582,6.215,0.6973,1.9936,0.9168,19,7.1,72.3,301,5,7.7,154.9,-11.7,-17.7
3419,-25.78205667,28.23139,5.8,0,2.109,1.63,5.623,0.61,1.8754,0.806,19,7.1,72.3,299.7,4.7,7.9,150,-13.5,-19.4
3419,-25.78205667,28.23139,5.8,0,1.917,1.632,5.157,0.5024,1.6922,0.6804,19.3,7,72.2,298.4,4.4,8,150.3,-15.2,-20.6
3427,-25.78205667,28.23139,5.8,0,1.661,1.57,4.848,0.3777,1.4535,0.5408,19.3,7,72.2,297,4,8.2,154,-16.5,-20.4
3428,-25.78205667,28.23139,5.8,0,1.352,1.429,4.661,0.2424,1.1659,0.397,19.3,7,72.2,295.6,3.6,8.3,161.4,-17,-18.9
3436,-25.78205667,28.23139,5.8,0,1.012,1.23,4.608,0.0976,0.8452,0.2522,19.3,7,72.2,294.4,3.2,8.4,173.9,-16.4,-16.2
3438,-25.78205667,28.23139,5.8,0,0.66,1.022,4.654,-0.0527,0.5086,0.1137,19.8,7,72.1,293.4,2.8,8.5,-162.3,-14.6,-12.4
3444,-25.78205667,28.23139,5.8,0,0.251,0.825,4.762,-0.2028,0.1794,-0.0121,19.8,7,72.1,292.4,2.4,8.5,-133.4,-12.3,-8.1
3453,-25.78205667,28.23139,5.8,0,-0.162,0.675,4.951,-0.3509,-0.1327,-0.1165,19.8,7,72.1,291.3,2,8.5,-109.3,-9.8,-3
3453,-25.78205667,28.23139,5.8,0,-0.55,0.545,5.188,-0.4947,-0.4235,-0.1932,19.8,7,72.1,290.3,1.6,8.5,-97.1,-7.8,1.9
3461,-25.78205667,28.23139,5.8,0,-0.876,0.514,5.533,-0.6363,-0.6813,-0.241,20.2,6.9,71.9,288.9,1.2,8.3,-90.7,-6,6.1
3463,-25.78205667,28.23139,5.8,0,-1.113,0.514,5.837,-0.7706,-0.8975,-0.2634,20.2,6.9,71.9,287.4,0.8,8.1,-88.8,-5.2,9
3470,-25.78205667,28.23139,5.8,0,-1.295,0.49,6.217,-0.8931,-1.0754,-0.2666,20.2,6.9,71.9,285.8,0.2,7.9,-88.1,-4.9,10.8
3479,-25.78205667,28.23139,5.8,0,-1.391,0.483,6.727,-1.0018,-1.2235,-0.2518,20.2,6.9,71.9,284.2,-0.4,7.6,-87,-4.4,11.8
3479,-25.78205667,28.23139,5.8,0,-1.376,0.493,7.218,-1.0934,-1.3545,-0.2305,20.5,6.9,71.9,282.5,-1.1,7.3,-86.3,-4,11.7
3487,-25.78205667,28.23139,5.8,0,-1.233,0.497,7.575,-1.1637,-1.4631,-0.2091,20.5,6.9,71.9,280.7,-1.8,6.9,-85.9,-3.8,10.8
3488,-25.78205667,28.23139,5.8,0,-0.979,0.524,7.807,-1.2117,-1.5441,-0.1889,20.5,6.9,71.9,278.7,-2.6,6.6,-85.5,-3.7,9.2
3496,-25.78205667,28.23139,5.8,0,-0.632,0.538,7.893,-1.235,-1.6123,-0.1697,20.5,6.9,71.9,276.6,-3.4,6.2,-85.5,-3.8,7.1
3504,-25.78205667,28.23139,5.8,0,-0.26,0.548,8.006,-1.2426,-1.6815,-0.1526,20.9,6.9,71.7,274.7,-4.1,5.9,-85.4,-3.9,4.6
3504,-25.78205667,28.23139,5.8,0,0.074,0.574,8.097,-1.2393,-1.7582,-0.1474,20.9,6.9,71.7,273.9,-4.8,5.7,-85,-3.9,1.9
3513,-25.78205667,28.23139,5.8,0,0.371,0.615,8.324,-1.2255,-1.8413,-0.1548,20.9,6.9,71.7,273.1,-5.4,5.5,-85,-4.1,-0.5
3513,-25.78205667,28.23139,5.8,0,0.577,0.658,8.678,-1.2042,-1.9223,-0.1761,20.9,6.9,71.7,272.3,-5.9,5.3,-85.1,-4.2,-2.6
3521,-25.78205667,28.23139,5.8,0,0.732,0.687,9.076,-1.1753,-1.9873,-0.2155,21.4,6.9,71.6,271.5,-6.4,5,-85.4,-4.3,-3.8
3523,-25.78205667,28.23139,5.8,0,0.893,0.727,9.382,-1.1349,-2.0053,-0.2655,21.4,6.9,71.6,270.7,-6.7,4.8,-85.1,-4.3,-4.6
3530,-25.78205667,28.23139,5.8,0,1.077,0.794,9.583,-1.086,-1.9628,-0.3242,21.4,6.9,71.6,270,-7,4.6,-85.3,-4.4,-5.4
3539,-25.78205667,28.23139,5.8,0,1.256,0.871,9.677,-1.0295,-1.8711,-0.386,21.4,6.9,71.6,269.4,-7.2,4.3,-86.5,-4.7,-6.4
3539,-25.78205667,28.23139,5.8,0,1.438,0.909,9.756,-0.9666,-1.7528,-0.4467,21.7,6.8,71.6,268.9,-7.2,4.1,-88.8,-5.1,-7.4
3546,-25.78205667,28.23139,5.8,0,1.587,0.948,9.821,-0.9027,-1.6208,-0.5105,21.7,6.8,71.6,268.5,-7.2,3.9,-89.9,-5.3,-8.4
3548,-25.78205667,28.23139,5.8,0,1.769,0.979,9.823,-0.841,-1.4802,-0.5776,21.7,6.8,71.6,268.2,-7.1,3.7,-91.2,-5.4,-9.2
3556,-25.78205667,28.23139,5.8,0,1.953,1.012,9.782,-0.7781,-1.3395,-0.6523,21.7,6.8,71.6,268,-7,3.5,-92.9,-5.6,-10.2
3558,-25.78205667,28.23139,5.8,0,2.14,1.039,9.667,-0.7153,-1.2053,-0.7333,22.1,6.8,71.5,267.9,-6.8,3.4,-95.3,-5.8,-11.3
3565,-25.78205667,28.23139,5.8,0,2.305,1.06,9.562,-0.6566,-1.0819,-0.8227,22.1,6.8,71.5,268,-6.5,3.4,-99.1,-6,-12.5
3573,-25.78205667,28.23139,5.8,0,2.434,1.058,9.526,-0.598,-0.9785,-0.9164,22.1,6.8,71.5,268.1,-6.2,3.4,-104.2,-6.2,-13.6
3573,-25.78205667,28.23139,5.8,0,2.506,0.981,9.533,-0.5394,-0.9017,-1.0134,22.1,6.8,71.5,268.3,-6,3.4,-107.8,-6.1,-14.3
3581,-25.78205667,28.23139,5.8,0,2.545,0.782,9.636,-0.483,-0.8496,-1.1157,22.6,6.9,71.5,268.5,-5.7,3.6,-98.5,-5.7,-14.7
3583,-25.78205667,28.23139,5.8,0,2.509,0.557,9.828,-0.4245,-0.8112,-1.2189,22.6,6.9,71.5,268.8,-5.4,3.8,-74.1,-4.5,-14.8
3589,-25.78205667,28.23139,5.8,0,2.494,0.296,9.976,-0.3626,-0.7888,-1.3234,22.6,6.9,71.5,269.2,-5.2,4,-56.5,-3.1,-14.3
3598,-25.78205667,28.23139,5.8,0,2.501,0.014,10.065,-0.2966,-0.7835,-1.4204,22.6,6.9,71.5,269.5,-4.9,4.4,-44,-1.6,-14
3598,-25.78205667,28.23139,5.8,0,2.456,-0.308,10.204,-0.2252,-0.7909,-1.5066,22.9,7,71.4,269.9,-4.6,4.8,-36,-0.1,-14
3607,-25.78205667,28.23139,5.8,0,2.36,-0.632,10.398,-0.1539,-0.8112,-1.5844,22.9,7,71.4,270.2,-4.3,5.3,-31.2,1.7,-13.5
3609,-25.78205667,28.23139,5.8,0,2.202,-0.928,10.642,-0.0835,-0.8389,-1.6472,22.9,7,71.4,270.6,-4,5.8,-29.8,3.4,-12.8
3615,-25.78205667,28.23139,5.8,0,2.015,-1.187,10.836,-0.0111,-0.8602,-1.6962,22.9,7,71.4,271,-3.6,6.3,-30.9,4.9,-11.7
3625,-25.78205667,28.23139,5.8,0,1.807,-1.419,10.9,0.0624,-0.8591,-1.7292,23.2,7,71.3,271.4,-3.2,6.9,-33.2,6.1,-10.5
3625,-25.78205667,28.23139,5.8,0,1.637,-1.584,10.812,0.136,-0.8218,-1.7463,23.2,7,71.3,271.7,-2.7,7.4,-34.4,7.3,-9.4
3633,-25.78205667,28.23139,5.8,0,1.608,-1.702,10.608,0.2074,-0.7505,-1.742,23.2,7,71.3,272.1,-2.3,7.9,-35,8.2,-8.6
3634,-25.78205667,28.23139,5.8,0,1.62,-1.647,10.216,0.268,-0.6429,-1.7218,23.2,7,71.3,272.5,-1.8,8.4,-33.5,9,-8.6
3641,-25.78205667,28.23139,5.8,0,1.496,-1.572,9.988,0.318,-0.5268,-1.6856,23.3,7.1,71.2,273,-1.3,8.9,-32.5,9,-9
3644,-25.78205667,28.23139,5.8,0,1.321,-1.477,9.804,0.3532,-0.4287,-1.6526,23.3,7.1,71.2,273.4,-0.9,9.3,-34.2,8.8,-8.5
3651,-25.78205667,28.23139,5.8,0,1.185,-1.407,9.557,0.3809,-0.3692,-1.5833,23.3,7.1,71.2,273.8,-0.5,9.6,-37.2,8.5,-7.7
3658,-25.78205667,28.23139,5.8,0,1.098,-1.271,9.351,0.4065,-0.3446,-1.4992,23.3,7.1,71.2,274.2,-0.1,9.8,-39.1,8.3,-7.1
3658,-25.78205667,28.23139,5.8,0,1.106,-1.118,9.186,0.4257,-0.3735,-1.4108,23.7,7.3,71.1,274.6,0.2,10,-41.9,7.7,-6.7
3666,-25.78205667,28.23139,5.8,0,1.244,-1.015,9.028,0.4353,-0.4458,-1.3266,23.7,7.3,71.1,275,0.6,10.1,-43.2,6.9,-6.9
3668,-25.78205667,28.23139,5.8,0,1.513,-1.015,8.927,0.4385,-0.5534,-1.251,23.7,7.3,71.1,276.1,0.9,10.2,-41.9,6.4,-7.8
3675,-25.78205667,28.23139,5.8,0,1.843,-1.067,8.99,0.4331,-0.6854,-1.1848,23.7,7.3,71.1,277.2,1.2,10.3,-36.6,6.4,-9.6
3684,-25.78205667,28.23139,5.8,0,2.209,-1.149,9.169,0.4203,-0.8293,-1.1305,23.9,7.4,71,278.2,1.6,10.5,-30,6.6,-11.6
3684,-25.78205667,28.23139,5.8,0,2.561,-1.264,9.442,0.3979,-0.9614,-1.0901,23.9,7.4,71,279.2,1.9,10.8,-22.1,6.9,-13.5
3692,-25.78205667,28.23139,5.8,0,2.889,-1.345,9.732,0.3692,-1.0572,-1.0625,23.9,7.4,71,280.2,2.4,11,-14.9,7.4,-15.2
3693,-25.78205667,28.23139,5.8,0,3.047,-1.431,10.086,0.3351,-1.103,-1.0517,23.9,7.4,71,281.2,2.8,11.3,-9,7.5,-16.5
3701,-25.78205667,28.23139,5.8,0,3.093,-1.515,10.445,0.2947,-1.0935,-1.0528,24.3,7.6,70.9,282.2,3.2,11.5,-8.9,7.7,-16.8
3704,-25.78205667,28.23139,5.8,0,3.028,-1.551,10.726,0.2552,-1.0359,-1.0475,24.3,7.6,70.9,283.3,3.7,11.8,-10.1,7.9,-16.5
3710,-25.78205667,28.23139,5.8,0,2.904,-1.508,10.876,0.2222,-0.9305,-1.0336,24.3,7.6,70.9,284.3,4.2,11.9,-13.1,7.9,-15.8
3718,-25.78205667,28.23139,5.8,0,2.755,-1.424,10.922,0.1966,-0.7846,-1.0091,24.3,7.6,70.9,285.5,4.7,12,-16.6,7.6,-14.9
3719,-25.78205667,28.23139,5.8,0,2.655,-1.335,10.872,0.1785,-0.6066,-0.975,24.5,7.7,70.8,286.6,5.1,12,-20.6,7.2,-14.2
3727,-25.78205667,28.23139,5.8,0,2.571,-1.221,10.73,0.1742,-0.4139,-0.9292,24.5,7.7,70.8,287.8,5.6,12,-22.9,6.8,-13.7
3729,-25.78205667,28.23139,5.8,0,2.494,-1.139,10.429,0.1838,-0.2359,-0.8706,24.5,7.7,70.8,289,5.9,12,-24.7,6.3,-13.5
3735,-25.78205667,28.23139,5.8,0,2.964,-1.606,9.823,0.1998,-0.0996,-0.8056,24.5,7.7,70.8,290.1,6.3,11.9,-25.2,6.1,-13.4
3744,-25.78205667,28.23139,5.8,0,3.344,-2.171,8.568,0.2009,-0.0324,-0.7343,24.6,8,70.7,290.9,6.7,12,-9.2,8.9,-16.8
3744,-25.78205667,28.23139,5.8,0,3.83,-2.566,7.436,0.0507,-0.1507,-0.615,24.6,8,70.7,291.7,7.2,12.2,6.3,13.3,-21.3
3753,-25.78205667,28.23139,5.8,0,3.694,-3.136,8.099,-0.3327,-0.531,-0.451,24.6,8,70.7,292.5,7.7,12.5,19.6,17.1,-27.3
3754,-25.78205667,28.23139,5.8,0,2.643,-3.27,10.86,-0.9976,-1.2161,-0.2805,24.6,8,70.7,293.3,8.3,12.8,12.1,19.4,-24.5
3761,-25.78205667,28.23139,5.8,0,1.924,-2.949,14.006,-1.723,-1.8839,-0.1356,24.9,8.1,70.6,294.1,8.8,12.8,-14.6,16.3,-13.7
3764,-25.78205667,28.23139,5.8,0,2.415,-2.171,15.701,-2.214,-1.9265,-0.0738,24.9,8.1,70.6,294.8,9.1,12.6,-33.3,11.8,-7.8
3770,-25.78205667,28.23139,5.8,0,3.433,-1.261,15.863,-2.409,-1.3971,-0.1261,24.9,8.1,70.6,295.8,9.1,12.5,-37.6,7.8,-8.7
3778,-25.78205667,28.23139,5.8,0,4.094,-0.591,15.275,-2.36,-0.7686,-0.1719,24.9,8.1,70.6,296.6,9,12.6,-34.1,4.4,-12.2
3779,-25.78205667,28.23139,5.8,0,4.393,-0.344,14.42,-2.1651,-0.2934,-0.1431,25,8.2,70.5,297.2,8.7,12.8,-28.3,2.1,-15
3787,-25.78205667,28.23139,5.8,0,4.51,-0.416,13.637,-1.8998,0.0463,-0.0781,25,8.2,70.5,297.5,8.3,13.2,-18.9,1.3,-16.9
3789,-25.78205667,28.23139,5.8,0,4.738,-0.632,12.749,-1.6207,0.2925,-0.0355,25,8.2,70.5,297.5,8,13.5,-8.9,1.7,-18.3
3795,-25.78205667,28.23139,5.8,0,5.058,-0.735,11.937,-1.3523,0.4085,-0.0472,25,8.2,70.5,297.3,7.8,14,5.3,2.7,-20.4
3804,-25.78205667,28.23139,5.8,0,5.413,-0.873,11.235,-1.1105,0.3627,-0.1196,25.3,8.4,70.4,296.7,7.6,14.5,18.3,3.2,-23
3804,-25.78205667,28.23139,5.8,0,5.688,-1.039,10.819,-0.8931,0.1827,-0.2219,25.3,8.4,70.4,296,7.5,15.1,29.8,4,-25.7
3812,-25.78205667,28.23139,5.8,0,5.825,-1.127,10.771,-0.7153,-0.0495,-0.3327,25.3,8.4,70.4,295.2,7.4,15.8,35.3,4.9,-27.7
3814,-25.78205667,28.23139,5.8,0,5.762,-1.12,11.037,-0.5852,-0.2424,-0.4434,25.3,8.4,70.4,294.5,7.4,16.5,36.6,5.3,-28.4
3821,-25.78205667,28.23139,5.8,0,5.604,-1.139,11.449,-0.5086,-0.3361,-0.5532,25.7,8.5,70.4,294,7.3,17.1,32.9,5.1,-27.6
3829,-25.78205667,28.23139,5.8,0,5.389,-1.197,11.858,-0.4777,-0.3147,-0.6512,25.7,8.5,70.4,293.6,7.3,17.6,27.5,5.1,-26.1
3830,-25.78205667,28.23139,5.8,0,4.965,-1.278,12.09,-0.4788,-0.1922,-0.7226,25.7,8.5,70.4,293.2,7.3,18,20.5,5.3,-24.4
3838,-25.78205667,28.23139,5.8,0,4.417,-1.379,12.227,-0.499,0.008,-0.7598,25.7,8.5,70.4,292.8,7.2,18.3,10.7,5.6,-22.3
3839,-25.78205667,28.23139,5.8,0,3.794,-1.47,12.555,-0.5373,0.2584,-0.7663,25.9,8.7,70.4,292.5,7.2,18.4,-1.6,6.1,-19.9
3847,-25.78205667,28.23139,5.8,0,3.198,-1.493,12.971,-0.597,0.5225,-0.7376,25.9,8.7,70.4,292.3,7.2,18.4,-14.7,6.4,-16.8
3849,-25.78205667,28.23139,5.8,0,2.71,-1.46,13.144,-0.6556,0.824,-0.6788,25.9,8.7,70.4,292.1,7.1,18.3,-26.2,6.4,-13.9
3855,-25.78205667,28.23139,5.8,0,2.341,-1.357,12.909,-0.6875,1.1914,-0.5958,25.9,8.7,70.4,291.9,7,18.1,-33.8,6.2,-11.7
3863,-25.78205667,28.23139,5.8,0,2.274,-1.187,12.241,-0.6843,1.5995,-0.5042,26,8.8,70.4,291.8,7,17.9,-38.6,5.9,-10.3
3864,-25.78205667,28.23139,5.8,0,2.6,-0.984,11.25,-0.6449,1.9777,-0.403,26,8.8,70.4,291.8,6.9,17.7,-38.9,5.4,-10.5
3872,-25.78205667,28.23139,5.8,0,3.023,-0.787,10.304,-0.5852,2.2483,-0.2986,26,8.8,70.4,291.7,6.8,17.7,-32.2,4.9,-13
3874,-25.78205667,28.23139,5.8,0,3.287,-0.56,9.507,-0.5181,2.375,-0.2049,26,8.8,70.4,291.7,6.7,17.8,-19.9,4.2,-16.4
3881,-25.78205667,28.23139,5.8,0,3.306,-0.342,8.813,-0.4456,2.3654,-0.1431,26.3,8.9,70.4,291.6,6.7,17.9,-8,3.2,-19.1
3890,-25.78205667,28.23139,5.8,0,3.241,-0.107,8.207,-0.3743,2.262,-0.1133,26.3,8.9,70.4,291.5,6.6,18.1,0.6,2.1,-20.6
3890,-25.78205667,28.23139,5.8,0,3.141,0.079,7.694,-0.304,2.1141,-0.1026,26.3,8.9,70.4,291.4,6.3,18.3,8.2,0.7,-21.5
3899,-25.78205667,28.23139,5.8,0,3.016,0.239,7.199,-0.2443,1.9447,-0.1057,26.3,8.9,70.4,291.2,6,18.3,15.5,-0.5,-22.2
3899,-25.78205667,28.23139,5.8,0,2.825,0.361,6.78,-0.1932,1.7667,-0.1165,26.3,8.9,70.5,290.9,5.5,18.2,23.9,-1.8,-22.7
3907,-25.78205667,28.23139,5.8,0,2.664,0.49,6.414,-0.1528,1.5814,-0.1293,26.3,8.9,70.5,290.5,5,18.2,28,-2.8,-22.6
3909,-25.78205667,28.23139,5.8,0,2.446,0.658,6.086,-0.1251,1.3929,-0.1398,26.3,8.9,70.5,290,4.4,18.4,36.7,-4,-22.6
3915,-25.78205667,28.23139,5.8,0,2.3,0.758,5.798,-0.1059,1.1925,-0.1463,26.3,8.9,70.5,289.1,3.9,18.9,52.9,-5.7,-21.9
3924,-25.78205667,28.23139,5.8,0,2.193,0.768,5.552,-0.0984,0.9753,-0.1474,26.3,9,70.6,288.1,3.5,19.4,95.9,-6.9,-21.6
3924,-25.78205667,28.23139,5.8,0,2.126,0.737,5.398,-0.1027,0.7408,-0.1506,26.3,9,70.6,287.1,3.3,19.8,115.1,-7.3,-21.6
3932,-25.78205667,28.23139,5.8,0,2.025,0.687,5.363,-0.1187,0.4958,-0.1611,26.3,9,70.6,286.1,3.2,20.1,112.2,-7.2,-21.5
3934,-25.78205667,28.23139,5.8,0,1.932,0.684,5.353,-0.1496,0.2508,-0.1761,26.3,9,70.6,285.1,3.1,20.2,96.7,-6.8,-20.7
3941,-25.78205667,28.23139,5.8,0,1.836,0.67,5.415,-0.1869,0.0187,-0.1921,26.3,9,70.6,284.3,2.9,20.3,-95.4,-6.9,-19.8
3949,-25.78205667,28.23139,5.8,0,1.783,0.641,5.695,-0.2284,-0.1976,-0.2049,26.3,9,70.6,283.5,2.7,20.3,-86.2,-6.7,-18.7
3949,-25.78205667,28.23139,5.8,0,1.769,0.617,6.078,-0.2742,-0.4042,-0.2123,26.3,9,70.6,282.8,2.5,20.1,-77.5,-6.1,-17.4
3958,-25.78205667,28.23139,5.8,0,1.829,0.596,6.449,-0.32,-0.6035,-0.2197,26.3,9,70.6,282.3,2.2,19.8,-73.5,-5.6,-16.2
3959,-25.78205667,28.23139,5.8,0,1.963,0.648,6.789,-0.3563,-0.7749,-0.2251,26.6,8.9,70.7,281.8,1.9,19.3,-70.5,-5.1,-15.8
3967,-25.78205667,28.23139,5.8,0,2.001,0.735,7.163,-0.3839,-0.9199,-0.2305,26.6,8.9,70.7,281.4,1.6,18.9,-71.2,-5.2,-16.1
3969,-25.78205667,28.23139,5.8,0,1.989,0.823,7.577,-0.4031,-1.0467,-0.239,26.6,8.9,70.7,280.9,1.2,18.4,-77.3,-5.6,-15.6
3975,-25.78205667,28.23139,5.8,0,1.987,0.902,8.001,-0.4126,-1.1564,-0.2538,26.6,8.9,70.7,280.3,0.8,17.9,-82.5,-6,-14.7
3984,-25.78205667,28.23139,5.8,0,2.003,0.976,8.386,-0.4137,-1.2469,-0.272,26.5,8.9,70.7,279.6,0.3,17.5,-85.7,-6.2,-13.9
3984,-25.78205667,28.23139,5.8,0,2.042,1.022,8.722,-0.4031,-1.3119,-0.2933,26.5,8.9,70.7,278.9,-0.2,17.1,-87.7,-6.5,-13.4
3992,-25.78205667,28.23139,5.8,0,2.121,1.055,9.042,-0.3839,-1.3491,-0.3189,26.5,8.9,70.7,278.1,-0.8,16.8,-88.1,-6.5,-13.2
3994,-25.78205667,28.23139,5.8,0,2.267,1.029,9.296,-0.3563,-1.3588,-0.3455,26.5,8.9,70.7,277.1,-1.4,16.7,-87.9,-6.5,-13.2
4001,-25.78205667,28.23139,5.8,0,2.458,0.972,9.576,-0.3253,-1.3321,-0.3721,26.8,8.7,70.8,276,-2,16.7,-86.1,-6.1,-13.7
4010,-25.78205667,28.23139,5.8,0,2.65,0.893,9.888,-0.2912,-1.265,-0.4041,26.8,8.7,70.8,274.9,-2.7,16.9,-81.1,-5.6,-14.4
4010,-25.78205667,28.23139,5.8,0,2.865,0.794,10.163,-0.2571,-1.166,-0.4414,26.8,8.7,70.8,274.5,-3.3,17.1,-74.2,-5,-15
4018,-25.78205667,28.23139,5.8,0,3.105,0.677,10.369,-0.221,-1.0339,-0.4861,26.8,8.7,70.8,274.1,-3.8,17.4,-65.2,-4.3,-15.7
4019,-25.78205667,28.23139,5.8,0,3.28,0.505,10.522,-0.1761,-0.8709,-0.5361,27.1,8.6,70.9,273.6,-4.2,17.6,-55.3,-3.6,-16.7
4026,-25.78205667,28.23139,5.8,0,3.43,0.32,10.611,-0.124,-0.6845,-0.5915,27.1,8.6,70.9,273.2,-4.5,17.6,-42.8,-2.6,-17.3
4035,-25.78205667,28.23139,5.8,0,3.584,0.162,10.553,-0.0622,-0.4735,-0.6534,27.1,8.6,70.9,272.8,-4.7,17.6,-31.6,-1.6,-17.9
4036,-25.78205667,28.23139,5.8,0,3.696,0.057,10.354,0.0144,-0.2476,-0.7172,27.1,8.6,70.9,272.4,-4.8,17.5,-20.8,-0.8,-18.8
4044,-25.78205667,28.23139,5.8,0,3.828,-0.052,10.012,0.105,-0.0282,-0.7833,27.3,8.5,71,272.1,-4.8,17.5,-12.9,-0.3,-19.6
4045,-25.78205667,28.23139,5.8,0,3.926,-0.198,9.639,0.2009,0.155,-0.8504,27.3,8.5,71,271.9,-4.7,17.5,-1,0.3,-20.9
4053,-25.78205667,28.23139,5.8,0,3.926,-0.383,9.27,0.3,0.2882,-0.9196,27.3,8.5,71,271.7,-4.6,17.5,8.5,1.1,-22.2
4054,-25.78205667,28.23139,5.8,0,3.847,-0.598,8.899,0.3905,0.3616,-0.9889,27.3,8.5,71,271.7,-4.4,17.6,12.6,2.2,-23
4061,-25.78205667,28.23139,5.8,0,3.651,-0.823,8.588,0.4704,0.3798,-1.0571,27.3,8.4,71.1,271.7,-4.1,17.7,13.5,3.5,-23.4
4070,-25.78205667,28.23139,5.8,0,3.392,-1.082,8.401,0.5354,0.3468,-1.1199,27.3,8.4,71.1,271.7,-3.7,17.7,10.1,5,-23
4070,-25.78205667,28.23139,5.8,0,3.086,-1.376,8.365,0.5801,0.2817,-1.1785,27.3,8.4,71.1,271.8,-3.2,17.8,4.2,6.8,-22
4078,-25.78205667,28.23139,5.8,0,2.774,-1.649,8.391,0.6068,0.203,-1.2211,27.3,8.4,71.1,272,-2.7,17.8,-2.9,8.8,-20.2
4079,-25.78205667,28.23139,5.8,0,2.497,-1.879,8.403,0.6185,0.1379,-1.2445,27.7,8.3,71.2,272.3,-2.1,17.8,-10.1,10.6,-18.3
4087,-25.78205667,28.23139,5.8,0,2.305,-2.116,8.379,0.6216,0.0964,-1.2413,27.7,8.3,71.2,272.5,-1.5,17.7,-14.6,12.1,-16.5
4095,-25.78205667,28.23139,5.8,0,2.195,-2.348,8.329,0.6164,0.0762,-1.2137,27.7,8.3,71.2,272.9,-0.9,17.5,-16.7,13.7,-15.4
4095,-25.78205667,28.23139,5.8,0,2.236,-2.583,8.248,0.5994,0.0719,-1.1646,27.7,8.3,71.2,273.2,-0.2,17.4,-17.2,15.2,-14.8
4104,-25.78205667,28.23139,5.8,0,2.444,-2.667,7.989,0.577,0.0825,-1.1007,27.8,8.2,71.2,273.6,0.5,17.4,-15.4,16.8,-15.2
4104,-25.78205667,28.23139,5.8,0,2.513,-2.679,7.912,0.5471,0.0986,-1.0251,27.8,8.2,71.2,274.1,1.2,17.4,-10.5,17.7,-17
4112,-25.78205667,28.23139,5.8,0,2.559,-2.715,7.857,0.5077,0.1081,-0.9613,27.8,8.2,71.2,274.6,1.9,17.4,-9,17.9,-17.6
4114,-25.78205667,28.23139,5.8,0,2.616,-2.772,7.793,0.4704,0.1071,-0.8834,27.8,8.2,71.2,275.1,2.6,17.5,-7.9,18.2,-18
4120,-25.78205667,28.23139,5.8,0,2.703,-2.784,7.69,0.4396,0.1156,-0.7928,27.8,8.1,71.2,276.7,3.3,17.5,-6.5,18.6,-18.6
4129,-25.78205667,28.23139,5.8,0,2.76,-2.693,7.606,0.4129,0.1262,-0.7044,27.8,8.1,71.2,278.2,4.1,17.6,-4.6,18.9,-19.4
4130,-25.78205667,28.23139,5.8,0,2.817,-2.547,7.536,0.3894,0.1305,-0.6203,27.8,8.1,71.2,279.9,4.9,17.8,-3.3,18.4,-19.9
4138,-25.78205667,28.23139,5.8,0,2.849,-2.408,7.501,0.3777,0.1114,-0.5372,27.8,8.1,71.2,281.5,5.6,18,-2,17.6,-20.5
4139,-25.78205667,28.23139,5.8,0,2.904,-2.317,7.484,0.3714,0.0517,-0.4573,27.8,8.1,71.1,283.1,6.4,18.2,-1.3,16.7,-20.8
4146,-25.78205667,28.23139,5.8,0,3.002,-2.264,7.445,0.3714,-0.0495,-0.3817,27.8,8.1,71.1,284.8,7.1,18.4,-0.3,16.1,-21.2
4155,-25.78205667,28.23139,5.8,0,3.117,-2.226,7.443,0.3756,-0.1848,-0.322,27.8,8.1,71.1,286.4,7.9,18.7,1.7,15.7,-22
4155,-25.78205667,28.23139,5.8,0,3.241,-2.183,7.467,0.3809,-0.3457,-0.2773,27.8,8.1,71.1,288.1,8.6,18.9,3.8,15.4,-22.7
4164,-25.78205667,28.23139,5.8,0,3.356,-2.145,7.632,0.3862,-0.529,-0.2464,27.7,8.1,71.1,289.7,9.4,19.1,5.9,15,-23.5
4164,-25.78205667,28.23139,5.8,0,3.464,-2.13,7.8,0.3862,-0.7281,-0.224,27.7,8.1,71.1,290.9,10.1,19.4,6.9,14.4,-23.7
4172,-25.78205667,28.23139,5.8,0,3.572,-2.09,7.96,0.3831,-0.9156,-0.206,27.7,8.1,71.1,291.9,10.8,19.6,7.6,14,-23.9
4175,-25.78205667,28.23139,5.8,0,3.627,-2.025,8.157,0.3777,-1.0733,-0.1899,27.7,8.1,71.1,293,11.5,19.8,8.4,13.5,-24.2
4181,-25.78205667,28.23139,5.8,0,3.675,-1.984,8.434,0.3629,-1.1968,-0.1782,27.5,8.2,71,294,12.1,20,8.5,12.8,-24
4191,-25.78205667,28.23139,5.8,0,3.689,-2.015,8.801,0.3415,-1.2852,-0.1676,27.5,8.2,71,295,12.7,20.1,7.4,12.2,-23.5
4192,-25.78205667,28.23139,5.8,0,3.713,-2.085,9.093,0.3149,-1.3395,-0.1537,27.5,8.2,71,296.4,13.2,20.2,5,11.9,-22.7
4197,-25.78205667,28.23139,5.8,0,3.691,-2.075,9.378,0.2872,-1.3556,-0.1409,27.5,8.2,71,297.8,13.7,20.2,3.3,12,-22.2
4200,-25.78205667,28.23139,5.8,0,3.62,-2.099,9.639,0.2585,-1.3364,-0.1335,27.6,8.2,71,299.1,14.2,20.1,0.8,11.6,-21.5
4206,-25.78205667,28.23139,5.8,0,3.519,-2.08,9.844,0.2287,-1.2843,-0.1261,27.6,8.2,71,300.4,14.5,20,-2.1,11.5,-20.6
4215,-25.78205667,28.23139,5.8,0,3.392,-2.073,10.07,0.2009,-1.2,-0.1122,27.6,8.2,71,301.5,14.8,19.8,-5.2,11.3,-19.7
4216,-25.78205667,28.23139,5.8,0,3.282,-2.03,10.275,0.1764,-1.0988,-0.092,27.6,8.2,71,302.5,15,19.7,-8.8,11,-18.6
4223,-25.78205667,28.23139,5.8,0,3.196,-1.939,10.405,0.1573,-0.9849,-0.0664,27.7,8.2,71,303.4,15.1,19.5,-12.2,10.7,-17.7
4225,-25.78205667,28.23139,5.8,0,3.134,-1.8,10.491,0.1466,-0.8645,-0.0366,27.7,8.2,71,304.1,15.1,19.4,-14.7,10.1,-17.1
4232,-25.78205667,28.23139,5.8,0,3.114,-1.632,10.503,0.1466,-0.7516,-0.0036,27.7,8.2,71,304.7,15,19.3,-16.9,9.3,-16.6
4241,-25.78205667,28.23139,5.8,0,3.174,-1.486,10.438,0.1562,-0.6524,0.0305,27.7,8.2,71,305,14.8,19.3,-18.3,8.5,-16.5
4241,-25.78205667,28.23139,5.8,0,3.33,-1.403,10.319,0.1742,-0.5725,0.0635,27.6,8.3,70.9,305.2,14.6,19.3,-17.5,7.8,-16.9
4249,-25.78205667,28.23139,5.8,0,3.526,-1.316,10.196,0.1998,-0.5162,0.0934,27.6,8.3,70.9,305.2,14.3,19.4,-14.2,7.4,-17.9
4250,-25.78205667,28.23139,5.8,0,3.775,-1.242,10.108,0.2254,-0.4821,0.1147,27.6,8.3,70.9,304.9,13.9,19.6,-9.6,7,-19.1
4258,-25.78205667,28.23139,5.8,0,3.986,-1.187,10.046,0.2509,-0.4597,0.1243,27.6,8.3,70.9,304.5,13.5,19.7,-3.7,6.6,-20.5
4260,-25.78205667,28.23139,5.8,0,4.165,-1.142,9.998,0.2722,-0.433,0.1189,27.6,8.3,70.8,304,13.1,19.9,1.7,6.3,-21.6
4267,-25.78205667,28.23139,5.8,0,4.309,-1.077,9.945,0.2925,-0.384,0.1019,27.6,8.3,70.8,303.3,12.7,20,6.2,6,-22.6
4275,-25.78205667,28.23139,5.8,0,4.376,-1.019,9.854,0.3074,-0.3201,0.0774,27.6,8.3,70.8,302.4,12.2,20.2,10.2,5.7,-23.4
4275,-25.78205667,28.23139,5.8,0,4.402,-0.981,9.737,0.3213,-0.2445,0.0487,27.6,8.3,70.8,301.5,11.8,20.4,12.9,5.4,-23.9
4284,-25.78205667,28.23139,5.8,0,4.321,-0.928,9.598,0.333,-0.1668,0.0125,27.6,8.3,70.8,300.5,11.4,20.6,14.9,5.2,-24.3
4285,-25.78205667,28.23139,5.8,0,4.161,-0.871,9.476,0.3393,-0.0943,-0.028,27.6,8.3,70.8,299.5,10.9,20.7,14.7,5,-24.2
4292,-25.78205667,28.23139,5.8,0,3.936,-0.818,9.318,0.3404,-0.04,-0.0738,27.6,8.3,70.8,298.5,10.6,20.9,12.4,4.8,-23.7
4300,-25.78205667,28.23139,5.8,0,3.667,-0.794,9.2,0.3341,-0.0048,-0.1111,27.6,8.3,70.8,297.5,10.2,20.9,8.5,4.6,-22.9
4301,-25.78205667,28.23139,5.8,0,3.373,-0.77,9.105,0.3234,0.0091,-0.1409,27.4,8.3,70.7,296.5,9.8,21,3.1,4.6,-21.7
4310,-25.78205667,28.23139,5.8,0,3.148,-0.725,9.081,0.3043,0.008,-0.1591,27.4,8.3,70.7,295.6,9.5,20.9,-4.3,4.5,-20.3
4310,-25.78205667,28.23139,5.8,0,2.973,-0.687,9.052,0.2808,-0.0069,-0.1665,27.4,8.3,70.7,294.8,9.2,20.8,-10.8,4.3,-19.1
4318,-25.78205667,28.23139,5.8,0,2.889,-0.629,9.023,0.2542,-0.0324,-0.1601,27.4,8.3,70.7,294.3,8.8,20.7,-15.9,4.1,-18.2
4320,-25.78205667,28.23139,5.8,0,2.868,-0.572,8.932,0.2265,-0.0613,-0.1431,27.4,8.3,70.7,293.7,8.5,20.5,-18.8,3.8,-17.8
4327,-25.78205667,28.23139,5.8,0,2.904,-0.502,8.784,0.2009,-0.0901,-0.1185,27.4,8.3,70.7,293.2,8.2,20.3,-19.1,3.5,-17.8
4335,-25.78205667,28.23139,5.8,0,2.999,-0.43,8.657,0.1722,-0.1231,-0.092,27.4,8.3,70.7,292.8,7.9,20.2,-17.2,3.1,-18.3
4335,-25.78205667,28.23139,5.8,0,3.122,-0.395,8.573,0.1423,-0.1699,-0.061,27.4,8.3,70.7,292.3,7.6,20.1,-13.1,2.7,-19.1
4343,-25.78205667,28.23139,5.8,0,3.224,-0.361,8.564,0.1071,-0.2328,-0.0366,27.4,8.3,70.7,291.9,7.3,20,-7.8,2.5,-20
4345,-25.78205667,28.23139,5.8,0,3.292,-0.337,8.664,0.0678,-0.3138,-0.0216,27.4,8.3,70.7,291.4,6.9,20,-3.8,2.3,-20.6
4352,-25.78205667,28.23139,5.8,0,3.337,-0.339,8.817,0.0283,-0.4,-0.0153,27.4,8.3,70.7,291,6.6,19.9,-2.7,2.1,-20.8
4361,-25.78205667,28.23139,5.8,0,3.339,-0.335,8.992,-0.01,-0.4704,-0.0131,27.4,8.3,70.7,290.5,6.3,20,-3.2,2.1,-20.7
4361,-25.78205667,28.23139,5.8,0,3.332,-0.332,9.217,-0.0451,-0.5151,-0.0121,27.6,8.3,70.6,290,5.9,20,-6.6,2,-20.4
4369,-25.78205667,28.23139,5.8,0,3.366,-0.337,9.461,-0.0749,-0.5364,-0.0131,27.6,8.3,70.6,289.3,5.6,20.1,-10,1.9,-19.9
4370,-25.78205667,28.23139,5.8,0,3.402,-0.313,9.703,-0.0984,-0.5342,-0.0121,27.6,8.3,70.6,288.6,5.3,20.1,-12,1.9,-19.6
4378,-25.78205667,28.23139,5.8,0,3.438,-0.277,9.911,-0.1144,-0.5108,-0.0099,27.6,8.3,70.6,287.8,5,20.2,-14,1.7,-19.3
4380,-25.78205667,28.23139,5.8,0,3.488,-0.205,10.034,-0.1176,-0.4682,-0.0078,27.6,8.3,70.6,287.1,4.7,20.3,-16,1.5,-19.1
4386,-25.78205667,28.23139,5.8,0,3.519,-0.114,10.046,-0.1101,-0.4053,-0.0036,27.6,8.3,70.6,286.3,4.4,20.4,-16.5,1.1,-19.2
4395,-25.78205667,28.23139,5.8,0,3.591,-0.031,9.981,-0.092,-0.3318,-0.0014,27.6,8.3,70.6,285.6,4.1,20.5,-16.6,0.6,-19.3
4395,-25.78205667,28.23139,5.8,0,3.67,0.057,9.919,-0.0707,-0.2584,-0.0003,27.6,8.3,70.6,284.9,3.9,20.6,-13.7,0.2,-19.8
4403,-25.78205667,28.23139,5.8,0,3.756,0.124,9.873,-0.0451,-0.1922,-0.0045,27.5,8.4,70.4,284.2,3.6,20.6,-9.6,-0.3,-20.3
4405,-25.78205667,28.23139,5.8,0,3.811,0.201,9.809,-0.0206,-0.1433,-0.0164,27.5,8.4,70.4,283.5,3.3,20.7,-5,-0.7,-20.8
4412,-25.78205667,28.23139,5.8,0,3.837,0.275,9.706,0.0049,-0.1018,-0.0323,27.5,8.4,70.4,282.9,3,20.7,-1,-1.1,-21.2
4421,-25.78205667,28.23139,5.8,0,3.883,0.296,9.579,0.0294,-0.0602,-0.0514,27.5,8.4,70.4,282.3,2.8,20.6,2.8,-1.5,-21.6
4421,-25.78205667,28.23139,5.8,0,3.921,0.342,9.457,0.0518,-0.0165,-0.0749,27.4,8.5,70.4,281.7,2.5,20.6,9.7,-1.6,-22.1
4429,-25.78205667,28.23139,5.8,0,3.974,0.402,9.289,0.0656,0.023,-0.0972,27.4,8.5,70.4,281.1,2.2,20.5,15.8,-1.9,-22.5
4430,-25.78205667,28.23139,5.8,0,4.034,0.457,9.148,0.0806,0.0506,-0.1165,27.4,8.5,70.4,280.5,1.9,20.5,24.8,-2.3,-23.2
4438,-25.78205667,28.23139,5.8,0,4.062,0.43,9.059,0.0891,0.056,-0.1346,27.4,8.5,70.4,280,1.6,20.5,33.8,-2.6,-23.8
4446,-25.78205667,28.23139,5.8,0,4.074,0.371,9.002,0.0934,0.0378,-0.1559,27.4,8.6,70.3,279.4,1.4,20.5,35.5,-2.5,-24.2
4446,-25.78205667,28.23139,5.8,0,4.058,0.294,8.975,0.0901,0.0069,-0.1847,27.4,8.6,70.3,278.9,1.1,20.5,35.2,-2.1,-24.4
4455,-25.78205667,28.23139,5.8,0,4.015,0.203,8.935,0.0815,-0.0272,-0.2177,27.4,8.6,70.3,278.3,0.9,20.6,32.4,-1.7,-24.3
4455,-25.78205667,28.23139,5.8,0,3.948,0.102,8.913,0.0688,-0.0549,-0.2507,27.4,8.6,70.3,277.8,0.7,20.7,28.7,-1.2,-24.2
4464,-25.78205667,28.23139,5.8,0,3.866,0.002,8.927,0.0528,-0.0708,-0.274,27.5,8.6,70.1,277.3,0.5,20.9,22.8,-0.6,-23.9
4465,-25.78205667,28.23139,5.8,0,3.734,-0.076,8.954,0.0348,-0.0804,-0.2911,27.5,8.6,70.1,276.8,0.4,21.1,17.2,0,-23.4
4472,-25.78205667,28.23139,5.8,0,3.596,-0.083,9.014,0.0177,-0.0782,-0.2996,27.5,8.6,70.1,276.4,0.3,21.2,10.1,0.4,-22.6
4481,-25.78205667,28.23139,5.8,0,3.466,-0.038,9.033,-0.0015,-0.0645,-0.2975,27.5,8.6,70.1,276,0.2,21.3,3,0.5,-21.7
4481,-25.78205667,28.23139,5.8,0,3.366,0.026,9.033,-0.0132,-0.04,-0.289,27.5,8.8,70,275.6,0.1,21.4,-3.5,0.2,-21
4489,-25.78205667,28.23139,5.8,0,3.327,0.088,9.038,-0.0206,-0.0133,-0.2709,27.5,8.8,70,275.3,0,21.5,-8.5,-0.2,-20.4
4490,-25.78205667,28.23139,5.8,0,3.354,0.158,9.066,-0.0206,0.0069,-0.2486,27.5,8.8,70,275.1,-0.1,21.5,-11.1,-0.5,-20.2
4498,-25.78205667,28.23139,5.8,0,3.452,0.201,9.054,-0.0154,0.0176,-0.2251,27.5,8.8,70,274.9,-0.2,21.5,-11,-0.9,-20.3
4506,-25.78205667,28.23139,5.8,0,3.6,0.27,8.999,-0.0026,0.0261,-0.2049,27.5,9,69.9,274.9,-0.3,21.5,-6.1,-1.2,-20.9
4506,-25.78205667,28.23139,5.8,0,3.763,0.347,8.87,0.0177,0.0324,-0.1889,27.5,9,69.9,274.8,-0.4,21.5,3.6,-1.6,-21.8
4514,-25.78205667,28.23139,5.8,0,3.864,0.452,8.736,0.0454,0.0304,-0.1771,27.5,9,69.9,274.8,-0.6,21.6,17.5,-2.1,-23
4515,-25.78205667,28.23139,5.8,0,3.952,0.56,8.619,0.0752,0.0059,-0.1697,27.5,9,69.9,274.7,-0.7,21.7,29.9,-2.7,-23.9
4523,-25.78205667,28.23139,5.8,0,4.01,0.656,8.492,0.104,-0.0485,-0.1708,27.8,9.2,69.7,274.6,-0.9,21.9,38.9,-3.4,-24.6
4525,-25.78205667,28.23139,5.8,0,4.046,0.713,8.391,0.1284,-0.1209,-0.1814,27.8,9.2,69.7,274.5,-1.1,22.1,49.9,-4,-25.3
4531,-25.78205667,28.23139,5.8,0,4.06,0.799,8.358,0.1466,-0.2041,-0.2017,27.8,9.2,69.7,274.5,-1.3,22.3,56.9,-4.4,-25.7
4541,-25.78205667,28.23139,5.8,0,4.108,0.871,8.336,0.1562,-0.2914,-0.224,27.8,9.2,69.7,274.3,-1.6,22.5,63.6,-4.9,-25.9
4541,-25.78205667,28.23139,5.8,0,4.194,0.893,8.312,0.1573,-0.3766,-0.2421,28.1,9.3,69.5,274.2,-1.8,22.7,67.3,-5.4,-26.2
4549,-25.78205667,28.23139,5.8,0,4.276,0.854,8.286,0.1497,-0.4522,-0.2603,28.1,9.3,69.5,274.1,-2,23,70.9,-5.5,-26.8
4550,-25.78205667,28.23139,5.8,0,4.35,0.797,8.288,0.1284,-0.5119,-0.2805,28.1,9.3,69.5,274,-2.2,23.2,70.2,-5.2,-27.3
4557,-25.78205667,28.23139,5.8,0,4.414,0.727,8.35,0.0965,-0.5534,-0.3007,28.1,9.3,69.5,273.8,-2.3,23.4,68.2,-4.9,-27.7
4567,-25.78205667,28.23139,5.8,0,4.472,0.687,8.394,0.0593,-0.5683,-0.3178,28.2,9.5,69.4,273.7,-2.4,23.6,63.1,-4.4,-27.9
4567,-25.78205667,28.23139,5.8,0,4.553,0.682,8.468,0.0166,-0.5566,-0.3327,28.2,9.5,69.4,273.6,-2.6,23.9,61.7,-4.1,-28
4575,-25.78205667,28.23139,5.8,0,4.654,0.667,8.475,-0.026,-0.5299,-0.3422,28.2,9.5,69.4,273.5,-2.6,24.1,62,-4.1,-28.3
4575,-25.78205667,28.23139,5.8,0,4.776,0.636,8.441,-0.0654,-0.5001,-0.3508,28.2,9.5,69.4,273.4,-2.7,24.3,63.1,-3.9,-28.8
4583,-25.78205667,28.23139,5.8,0,4.893,0.572,8.365,-0.0996,-0.4799,-0.355,28.4,9.8,69.3,273.3,-2.8,24.5,62.3,-3.8,-29.5
4585,-25.78205667,28.23139,5.8,0,5.006,0.466,8.298,-0.1337,-0.4778,-0.3615,28.4,9.8,69.3,273.3,-2.8,24.7,62.6,-3.4,-30.3
4592,-25.78205667,28.23139,5.8,0,5.104,0.328,8.248,-0.1655,-0.498,-0.371,28.4,9.8,69.3,273.3,-2.8,24.9,61.4,-2.8,-31.1
4599,-25.78205667,28.23139,5.8,0,5.154,0.155,8.269,-0.1986,-0.5353,-0.3838,28.4,9.8,69.3,273.2,-2.8,25.2,59.3,-1.9,-31.8
4601,-25.78205667,28.23139,5.8,0,5.161,-0.023,8.379,-0.2326,-0.5864,-0.3956,28.5,10.1,69.1,273.2,-2.8,25.4,54.3,-0.9,-31.9
4609,-25.78205667,28.23139,5.8,0,5.094,-0.184,8.552,-0.2657,-0.6439,-0.4093,28.5,10.1,69.1,273.2,-2.8,25.7,49.5,0.1,-31.6
4610,-25.78205667,28.23139,5.8,0,4.936,-0.32,8.746,-0.2923,-0.7015,-0.4212,28.5,10.1,69.1,273.2,-2.7,25.9,43.6,1.1,-30.8
4617,-25.78205667,28.23139,5.8,0,4.771,-0.435,8.985,-0.3147,-0.7462,-0.4275,28.5,10.1,69.1,273.3,-2.6,26.1,36.4,1.8,-29.4
4627,-25.78205667,28.23139,5.8,0,4.599,-0.55,9.174,-0.3264,-0.7707,-0.4297,28.5,10.3,69,273.3,-2.6,26.3,28.1,2.4,-28
4627,-25.78205667,28.23139,5.8,0,4.438,-0.66,9.38,-0.3285,-0.774,-0.4212,28.5,10.3,69,273.3,-2.5,26.5,20.8,3.1,-26.6
4635,-25.78205667,28.23139,5.8,0,4.295,-0.703,9.629,-0.3168,-0.7655,-0.4062,28.5,10.3,69,273.4,-2.3,26.6,14,3.6,-25.3
4636,-25.78205667,28.23139,5.8,0,4.189,-0.684,9.835,-0.2934,-0.759,-0.3817,28.5,10.3,69,273.5,-2.1,26.8,7.7,3.8,-24
4644,-25.78205667,28.23139,5.8,0,4.151,-0.634,9.943,-0.2551,-0.7536,-0.3519,28.6,10.5,68.9,273.6,-2,26.8,2.4,3.7,-23.1
4645,-25.78205667,28.23139,5.8,0,4.228,-0.593,9.967,-0.206,-0.7462,-0.3135,28.6,10.5,68.9,273.7,-1.8,26.9,0.4,3.4,-22.7
4651,-25.78205667,28.23139,5.8,0,4.398,-0.567,9.892,-0.1463,-0.7271,-0.2698,28.6,10.5,68.9,273.8,-1.6,27,2.1,3.1,-23
4661,-25.78205667,28.23139,5.8,0,4.613,-0.514,9.794,-0.0803,-0.7004,-0.2282,28.6,10.5,68.9,273.9,-1.4,27,7.1,3,-24
4661,-25.78205667,28.23139,5.8,0,4.85,-0.435,9.686,-0.0143,-0.6759,-0.1921,28.9,10.8,68.7,274,-1.2,27.1,12.3,2.7,-25.2
4669,-25.78205667,28.23139,5.8,0,5.061,-0.378,9.605,0.0518,-0.6589,-0.1654,28.9,10.8,68.7,274.2,-1,27.2,19.6,2.3,-26.6
4671,-25.78205667,28.23139,5.8,0,5.204,-0.328,9.524,0.1156,-0.6504,-0.1474,28.9,10.8,68.7,274.3,-0.8,27.3,25.7,2,-27.8
4677,-25.78205667,28.23139,5.8,0,5.3,-0.284,9.414,0.1753,-0.6429,-0.1431,28.9,10.8,68.7,274.4,-0.6,27.4,30.2,1.7,-28.7
4686,-25.78205667,28.23139,5.8,0,5.377,-0.225,9.239,0.2287,-0.6322,-0.1484,29,11,68.6,274.6,-0.4,27.5,33,1.5,-29.4
4686,-25.78205667,28.23139,5.8,0,5.406,-0.181,9.074,0.2754,-0.6163,-0.1591,29,11,68.6,274.7,-0.2,27.7,37,1.2,-30.2
4695,-25.78205667,28.23139,5.8,0,5.396,-0.15,8.904,0.3128,-0.6024,-0.1728,29,11,68.6,274.9,0,27.8,39.8,1,-30.8
4696,-25.78205667,28.23139,5.8,0,5.379,-0.105,8.734,0.3384,-0.5981,-0.1899,29,11,68.6,275.1,0.3,28,41.7,0.8,-31.2
4703,-25.78205667,28.23139,5.8,0,5.322,-0.064,8.607,0.3512,-0.6003,-0.206,29.1,11.3,68.5,275.6,0.5,28.1,42.9,0.6,-31.6
4712,-25.78205667,28.23139,5.8,0,5.25,-0.055,8.532,0.3501,-0.6089,-0.2188,29.1,11.3,68.5,276,0.7,28.2,44,0.4,-31.7
4712,-25.78205667,28.23139,5.8,0,5.166,-0.064,8.58,0.3341,-0.6216,-0.2251,29.1,11.3,68.5,276.5,0.8,28.4,43.7,0.3,-31.6
4720,-25.78205667,28.23139,5.8,0,5.099,-0.086,8.69,0.3043,-0.628,-0.2273,29.1,11.3,68.5,276.9,1,28.5,41.7,0.4,-31.1
4721,-25.78205667,28.23139,5.8,0,5.03,-0.131,8.815,0.2669,-0.6226,-0.2262,29.4,11.5,68.4,277.3,1.1,28.5,37.4,0.5,-30.4
4729,-25.78205667,28.23139,5.8,0,4.951,-0.165,8.899,0.2254,-0.5885,-0.2197,29.4,11.5,68.4,277.7,1.3,28.5,33.9,0.7,-29.7
4731,-25.78205667,28.23139,5.8,0,4.884,-0.169,8.963,0.1818,-0.5279,-0.2102,29.4,11.5,68.4,278.1,1.5,28.5,30.8,0.9,-29.1
4737,-25.78205667,28.23139,5.8,0,4.841,-0.119,9.006,0.1402,-0.4469,-0.191,29.4,11.5,68.4,278.5,1.6,28.5,28.6,0.9,-28.6
4746,-25.78205667,28.23139,5.8,0,4.812,-0.059,9.023,0.1062,-0.3542,-0.1654,29.6,11.8,68.3,278.9,1.7,28.4,26.4,0.7,-28.3
4746,-25.78205667,28.23139,5.8,0,4.771,0.004,9.023,0.0784,-0.2584,-0.1389,29.6,11.8,68.3,279.3,1.8,28.3,26.3,0.3,-28.1
4754,-25.78205667,28.23139,5.8,0,4.697,0.045,9.009,0.0604,-0.171,-0.1143,29.6,11.8,68.3,279.6,1.8,28.1,26.1,0,-27.9
4756,-25.78205667,28.23139,5.8,0,4.587,0.11,8.942,0.0518,-0.0986,-0.0952,29.6,11.8,68.3,279.9,1.8,28,25,-0.3,-27.5
4763,-25.78205667,28.23139,5.8,0,4.544,0.205,8.892,0.0518,-0.0421,-0.0792,29.9,12,68.2,280.2,1.8,27.9,22,-0.6,-27.2
4772,-25.78205667,28.23139,5.8,0,4.565,0.361,8.868,0.0613,0.0005,-0.06,29.9,12,68.2,280.3,1.7,27.8,22.8,-1.2,-27.1
4772,-25.78205667,28.23139,5.8,0,4.699,0.55,8.846,0.0784,0.0314,-0.0386,29.9,12,68.2,280.4,1.5,27.8,26.5,-2.1,-27.2
4780,-25.78205667,28.23139,5.8,0,4.939,0.675,8.757,0.1062,0.0474,-0.0173,29.9,12,68.2,280.4,1.3,27.9,35.3,-3.1,-28
4781,-25.78205667,28.23139,5.8,0,5.2,0.713,8.58,0.1412,0.0495,-0.0003,30.2,12.2,68.2,280.3,1,28,45,-3.8,-29.4
4788,-25.78205667,28.23139,5.8,0,5.456,0.739,8.358,0.1785,0.0527,0.0049,30.2,12.2,68.2,280.1,0.7,28.2,53.9,-4.1,-31.2
4791,-25.78205667,28.23139,5.8,0,5.652,0.785,8.128,0.2137,0.056,-0.011,30.2,12.2,68.2,279.8,0.4,28.6,60.7,-4.2,-33.1
4797,-25.78205667,28.23139,5.8,0,5.719,0.825,7.931,0.2414,0.0506,-0.0408,30.2,12.2,68.2,279.5,0.1,29,65.7,-4.5,-34.8
4805,-25.78205667,28.23139,5.8,0,5.717,0.883,7.778,0.2617,0.0324,-0.077,30.4,12.4,68.1,279,-0.2,29.4,67.8,-4.8,-35.8
4806,-25.78205667,28.23139,5.8,0,5.621,0.912,7.627,0.2754,0.0005,-0.1143,30.4,12.4,68.1,278.5,-0.5,29.8,70.2,-5.2,-36.3
4814,-25.78205667,28.23139,5.8,0,5.451,0.852,7.524,0.2819,-0.0463,-0.1506,30.4,12.4,68.1,277.9,-0.8,30.2,71.4,-5.5,-36.4
4816,-25.78205667,28.23139,5.8,0,5.209,0.78,7.524,0.2797,-0.1049,-0.1867,30.5,12.7,68,277.4,-1.1,30.5,68.7,-5.2,-35.9
4823,-25.78205667,28.23139,5.8,0,4.903,0.761,7.62,0.268,-0.1689,-0.223,30.5,12.7,68,276.8,-1.4,30.7,65,-4.9,-34.7
4832,-25.78205667,28.23139,5.8,0,4.613,0.797,7.723,0.2478,-0.2317,-0.2507,30.5,12.7,68,276.3,-1.6,30.8,60.1,-4.8,-32.8
4832,-25.78205667,28.23139,5.8,0,4.376,0.804,7.831,0.2265,-0.2882,-0.2634,30.5,12.7,68,275.8,-1.9,30.9,55.2,-5.1,-30.8
4840,-25.78205667,28.23139,5.8,0,4.23,0.814,7.97,0.2041,-0.3372,-0.2571,30.5,12.7,68,275.3,-2.1,30.8,47.9,-5.1,-29.2
4841,-25.78205667,28.23139,5.8,0,4.163,0.804,8.075,0.1807,-0.3713,-0.2368,30.7,12.9,68,275,-2.4,30.8,38,-5.2,-28
4849,-25.78205667,28.23139,5.8,0,4.192,0.837,8.159,0.1583,-0.3872,-0.2123,30.7,12.9,68,274.8,-2.6,30.6,31.9,-5.1,-27.3
4851,-25.78205667,28.23139,5.8,0,4.285,0.921,8.204,0.1349,-0.3872,-0.1867,30.7,12.9,68,274.7,-2.8,30.5,32.1,-5.2,-27.2
4856,-25.78205667,28.23139,5.8,0,4.453,0.988,8.243,0.1125,-0.3809,-0.1634,30.9,13.1,68,274.6,-3,30.3,35.6,-5.7,-27.6
4865,-25.78205667,28.23139,5.8,0,4.627,1.046,8.252,0.0934,-0.3798,-0.1389,30.9,13.1,68,274.5,-3.3,30.2,44.2,-6,-28.4
4867,-25.78205667,28.23139,5.8,0,4.824,1.091,8.219,0.0763,-0.3851,-0.1165,30.9,13.1,68,274.4,-3.5,30.2,52.1,-6.3,-29.3
4874,-25.78205667,28.23139,5.8,0,4.972,1.101,8.185,0.0624,-0.3904,-0.1037,30.9,13.1,68,274.3,-3.8,30.2,59.3,-6.5,-30.4
4876,-25.78205667,28.23139,5.8,0,5.058,1.063,8.116,0.0443,-0.3968,-0.1037,31,13.4,68,274.2,-4.1,30.2,61.3,-6.6,-31.3
4882,-25.78205667,28.23139,5.8,0,5.07,1.039,8.015,0.0263,-0.4053,-0.1165,31,13.4,68,274,-4.4,30.3,62.1,-6.3,-31.9
4891,-25.78205667,28.23139,5.8,0,5.058,1.027,7.948,0.0007,-0.4128,-0.1367,31,13.4,68,273.9,-4.7,30.4,62.7,-6.3,-32.3
4892,-25.78205667,28.23139,5.8,0,5.02,1.053,7.924,-0.0291,-0.4202,-0.1548,31,13.4,68,273.8,-5,30.5,63,-6.2,-32.5
4900,-25.78205667,28.23139,5.8,0,5.015,1.118,7.953,-0.0612,-0.4341,-0.1686,31.2,13.6,67.9,273.7,-5.2,30.7,62.1,-6.4,-32.4
4901,-25.78205667,28.23139,5.8,0,5.075,1.146,8.008,-0.092,-0.4565,-0.175,31.2,13.6,67.9,273.5,-5.5,30.8,64,-6.8,-32.2
4909,-25.78205667,28.23139,5.8,0,5.207,1.12,8.056,-0.1198,-0.4906,-0.1782,31.2,13.6,67.9,273.4,-5.8,31,65.1,-6.9,-32.4
4917,-25.78205667,28.23139,5.8,0,5.382,1.065,8.094,-0.1442,-0.531,-0.1804,31.2,13.6,67.9,273.2,-6.1,31.2,65,-6.7,-32.9
4917,-25.78205667,28.23139,5.8,0,5.544,0.986,8.125,-0.1687,-0.5683,-0.191,31.2,13.6,67.9,273.1,-6.3,31.4,64.6,-6.3,-33.6
4926,-25.78205667,28.23139,5.8,0,5.65,0.914,8.197,-0.1911,-0.5981,-0.2112,31.2,13.9,67.9,273,-6.4,31.6,62.7,-5.7,-34.3
4926,-25.78205667,28.23139,5.8,0,5.736,0.828,8.331,-0.2135,-0.6183,-0.239,31.2,13.9,67.9,272.9,-6.5,31.8,61.1,-5.2,-34.6
4934,-25.78205667,28.23139,5.8,0,5.77,0.703,8.504,-0.2349,-0.628,-0.2698,31.2,13.9,67.9,272.8,-6.6,32,58.6,-4.7,-34.5
4936,-25.78205667,28.23139,5.8,0,5.76,0.598,8.729,-0.2475,-0.6248,-0.2996,31.7,14.1,67.8,272.7,-6.6,32.1,52.8,-3.9,-34.2
4943,-25.78205667,28.23139,5.8,0,5.734,0.533,8.88,-0.254,-0.6035,-0.3274,31.7,14.1,67.8,272.6,-6.5,32.1,48,-3.3,-33.4
4951,-25.78205667,28.23139,5.8,0,5.722,0.565,9.057,-0.2497,-0.5705,-0.3519,31.7,14.1,67.8,272.6,-6.5,32.1,44.6,-2.9,-32.9
4952,-25.78205667,28.23139,5.8,0,5.7,0.624,9.157,-0.2358,-0.5299,-0.371,31.7,14.1,67.8,272.6,-6.4,32,42.9,-3,-32.3
4960,-25.78205667,28.23139,5.8,0,5.7,0.629,9.126,-0.2124,-0.483,-0.3817,31.8,14.3,67.8,272.6,-6.3,31.8,41.6,-3.3,-31.9
4961,-25.78205667,28.23139,5.8,0,5.722,0.608,9.04,-0.1783,-0.433,-0.388,31.8,14.3,67.8,272.7,-6.2,31.7,42.1,-3.3,-32
4969,-25.78205667,28.23139,5.8,0,5.746,0.61,8.954,-0.1431,-0.3798,-0.3902,31.8,14.3,67.8,272.7,-6.1,31.6,43.1,-3.3,-32.3
4977,-25.78205667,28.23139,5.8,0,5.762,0.667,8.858,-0.109,-0.3233,-0.3956,31.8,14.3,67.8,272.8,-6,31.5,44.6,-3.3,-32.7
4978,-25.78205667,28.23139,5.8,0,5.777,0.682,8.803,-0.0782,-0.2743,-0.3999,31.9,14.5,67.7,272.9,-6,31.5,46.1,-3.6,-33
4986,-25.78205667,28.23139,5.8,0,5.805,0.672,8.772,-0.0484,-0.2339,-0.3999,31.9,14.5,67.7,272.9,-5.9,31.6,47.3,-3.7,-33.3
4986,-25.78205667,28.23139,5.8,0,5.896,0.656,8.731,-0.0217,-0.1955,-0.3965,31.9,14.5,67.7,273,-5.9,31.8,47.9,-3.7,-33.5
4994,-25.78205667,28.23139,5.8,0,6.052,0.66,8.604,0.0049,-0.1486,-0.3956,31.9,14.5,67.7,273.1,-5.8,32,49.3,-3.6,-34
5003,-25.78205667,28.23139,5.8,0,6.232,0.684,8.434,0.0294,-0.0921,-0.3956,32.1,14.7,67.7,273.1,-5.8,32.2,51.5,-3.6,-35.1
5003,-25.78205667,28.23139,5.8,0,6.421,0.629,8.202,0.0539,-0.0315,-0.3977,32.1,14.7,67.7,273.2,-5.7,32.5,55.4,-3.7,-36.5
5011,-25.78205667,28.23139,5.8,0,6.581,0.562,7.908,0.073,0.023,-0.4051,32.1,14.7,67.7,273.2,-5.7,32.8,57.9,-3.5,-38.1
5011,-25.78205667,28.23139,5.8,0,6.663,0.502,7.642,0.088,0.0654,-0.419,32.1,14.7,67.7,273.2,-5.6,33.2,60,-3.1,-39.8
5020,-25.78205667,28.23139,5.8,0,6.665,0.428,7.457,0.0943,0.0804,-0.4371,32.2,15,67.6,273.3,-5.5,33.6,60.6,-2.8,-41.1
5021,-25.78205667,28.23139,5.8,0,6.612,0.316,7.383,0.0901,0.0688,-0.4562,32.2,15,67.6,273.3,-5.3,34,60.6,-2.5,-41.8
5028,-25.78205667,28.23139,5.8,0,6.447,0.193,7.371,0.0752,0.041,-0.4764,32.2,15,67.6,273.4,-5.2,34.3,59,-1.8,-41.8
5037,-25.78205667,28.23139,5.8,0,6.217,0.098,7.388,0.0571,0.0091,-0.4946,32.2,15,67.6,273.5,-5,34.6,56.3,-1.1,-41.2
5038,-25.78205667,28.23139,5.8,0,5.956,0.045,7.414,0.0368,-0.0111,-0.5063,32.3,15.2,67.6,273.5,-4.8,34.9,52.4,-0.6,-40.1
